aX,aY,aZ,gX,gY,gZ
1.244,1.478,-0.115,15.686,-128.906,-82.947
1.262,1.755,-0.168,21.057,-130.432,-120.728
1.166,1.799,-0.305,23.132,-133.240,-166.382
0.938,1.789,-0.358,33.997,-150.269,-209.229
0.715,1.378,-0.131,45.166,-177.307,-258.728
0.516,0.568,0.590,44.373,-201.172,-303.162
0.568,0.051,1.538,23.865,-193.481,-311.218
0.688,-0.147,2.352,-6.531,-145.813,-294.678
0.747,-0.157,2.766,-36.682,-68.237,-273.621
0.683,-0.307,2.841,-67.993,20.691,-259.888
0.606,-0.646,2.766,-97.229,98.572,-252.869
0.492,-1.016,2.649,-114.868,153.503,-241.882
0.367,-1.407,2.573,-125.854,197.815,-224.548
0.289,-1.629,2.476,-130.371,233.826,-196.777
0.181,-1.699,2.229,-124.146,274.414,-163.391
0.020,-1.782,1.862,-112.976,307.983,-134.521
-0.062,-1.839,1.440,-98.755,333.984,-109.253
-0.106,-1.783,1.079,-76.660,344.910,-83.496
-0.115,-1.674,0.798,-45.410,341.431,-60.181
-0.104,-1.538,0.653,-12.085,331.238,-41.748
-0.142,-1.432,0.420,15.991,325.867,-25.513
-0.122,-1.373,0.239,32.043,318.909,-12.207
-0.086,-1.292,0.170,44.800,305.664,1.099
-0.033,-1.212,0.146,57.068,291.870,14.038
-0.021,-1.115,0.096,70.679,283.081,27.649
0.049,-0.992,0.091,71.350,274.292,40.649
0.057,-0.960,0.120,65.674,271.118,50.476
-0.011,-1.092,-0.071,71.655,279.053,60.486
-0.054,-1.164,-0.243,74.463,282.166,80.505
-0.054,-0.998,-0.287,69.641,279.236,110.107
-0.058,-0.904,-0.299,68.420,276.428,133.301
-0.021,-0.813,-0.255,72.144,277.161,148.010
-0.262,-1.017,-0.515,84.900,287.354,157.043
-0.325,-1.143,-0.829,83.374,295.288,174.561
-0.370,-0.990,-0.965,77.209,288.635,204.041
-0.374,-0.888,-1.037,71.106,278.625,225.281
-0.402,-0.810,-1.070,81.787,261.719,237.549
-0.418,-0.541,-1.198,88.318,248.108,251.282
-0.441,-0.303,-1.411,93.567,232.727,258.850
-0.408,-0.114,-1.553,103.394,208.679,257.629
-0.372,0.078,-1.614,112.000,178.040,251.282
-0.307,0.196,-1.679,126.282,147.278,238.098
-0.244,0.308,-1.636,146.118,114.502,221.924
-0.188,0.437,-1.635,166.077,82.275,205.994
-0.197,0.518,-1.740,184.998,54.443,187.195
-0.192,0.395,-1.805,206.299,26.978,163.879
-0.235,0.297,-1.981,216.492,2.686,150.574
-0.292,0.257,-2.134,203.430,-23.987,152.283
-0.266,0.527,-2.172,169.128,-59.753,165.771
-0.220,0.882,-2.210,140.991,-97.839,172.852
-0.167,1.049,-2.090,131.165,-140.564,157.532
-0.094,1.052,-1.825,148.743,-185.730,127.197
0.006,1.004,-1.478,177.002,-225.586,96.069
0.116,1.273,-1.182,198.303,-252.991,71.655
0.169,1.432,-1.093,223.145,-267.090,35.583
0.208,1.298,-1.081,233.276,-274.963,-8.179
0.238,1.237,-1.109,221.619,-283.020,-38.147
0.062,1.253,-1.450,208.069,-292.725,-55.908
0.094,1.408,-1.142,204.529,-329.590,-80.139
0.245,1.682,-0.506,184.387,-359.375,-103.821
0.414,2.012,-0.005,180.115,-364.807,-136.719
0.506,1.963,0.323,198.242,-355.286,-187.134
0.339,1.494,0.132,215.271,-329.346,-240.845
0.165,0.618,-0.024,239.563,-314.819,-284.119
0.196,0.059,0.311,237.244,-317.139,-298.767
0.323,-0.265,0.677,206.909,-301.941,-284.912
0.455,-0.457,0.995,176.941,-277.283,-256.042
0.637,-0.509,1.445,155.029,-249.451,-223.999
0.816,-0.285,1.736,136.353,-205.872,-193.542
0.890,-0.161,1.659,126.404,-154.053,-176.147
0.860,-0.277,1.386,132.751,-111.755,-173.279
0.815,-0.560,1.133,133.789,-83.679,-169.189
0.804,-0.739,1.021,121.094,-66.101,-154.419
0.811,-0.790,0.982,101.624,-52.551,-131.165
0.818,-0.763,0.906,75.134,-36.987,-105.530
0.817,-0.686,0.744,43.274,-18.311,-80.994
0.832,-0.590,0.637,14.465,-5.859,-59.143
0.891,-0.445,0.743,-5.188,-2.197,-40.466
0.933,-0.327,0.759,-14.587,4.211,-28.931
0.932,-0.297,0.621,-15.869,12.390,-24.109
0.932,-0.251,0.518,-15.320,15.076,-20.264
0.935,-0.225,0.474,-14.343,18.250,-16.724
0.940,-0.202,0.410,-11.658,17.517,-14.160
0.940,-0.215,0.368,-9.460,16.907,-12.085
0.944,-0.192,0.351,-6.958,18.066,-9.033
0.957,-0.105,0.361,-3.296,14.221,-5.859
0.961,-0.076,0.339,0.610,13.489,-5.554
0.957,-0.037,0.280,1.038,17.212,-5.249
0.962,-0.015,0.300,1.404,13.916,-5.432
0.967,-0.042,0.348,1.160,10.620,-6.470
0.961,-0.079,0.315,-0.305,13.123,-5.981
0.963,-0.107,0.331,-3.296,13.062,-4.456
0.966,-0.102,0.332,-7.141,16.052,-2.319
0.960,-0.062,0.298,-10.559,20.447,-0.244
0.961,-0.066,0.267,-11.169,19.653,0.916
0.952,-0.065,0.261,-11.353,17.639,1.282
0.944,-0.046,0.222,-10.864,18.555,2.136
0.937,-0.056,0.168,-8.911,19.714,1.892
0.929,-0.064,0.181,-7.812,14.832,2.075
0.928,-0.050,0.185,-7.141,9.399,3.418
0.938,-0.007,0.221,-7.202,9.949,4.028
0.939,0.009,0.190,-5.798,9.277,3.784
0.932,-0.019,0.169,-5.249,10.193,3.052
0.947,-0.007,0.189,-6.836,8.850,3.540
0.949,0.013,0.206,-7.446,7.568,3.967
0.946,0.026,0.152,-5.859,9.033,2.930
0.937,-0.004,0.123,-4.211,8.179,1.587
0.944,-0.001,0.172,-3.235,3.540,1.770
0.949,0.017,0.187,-1.221,1.831,2.258
0.954,0.011,0.181,0.488,0.549,1.709
0.952,0.007,0.209,1.709,-1.160,1.160
0.961,0.011,0.229,2.075,-1.465,0.977
0.964,0.035,0.224,1.709,0.610,1.648
0.964,0.051,0.209,-0.183,0.061,1.648
0.963,0.069,0.188,-2.502,0.793,1.526
0.958,0.048,0.190,-4.761,1.404,0.366
0.961,0.025,0.195,-4.333,-0.854,-0.610
0.965,0.004,0.199,-4.700,-0.977,-1.160
0.965,0.007,0.190,-5.310,-1.892,-1.038

1.083,1.239,-0.305,7.629,-66.162,-35.339
1.068,1.206,-0.194,30.640,-82.581,-65.308
1.007,1.069,-0.133,53.284,-95.276,-97.046
0.986,1.183,-0.088,67.200,-105.225,-123.169
0.881,1.568,-0.266,80.688,-120.300,-155.212
0.889,1.322,0.434,80.261,-150.085,-204.224
0.823,1.382,0.765,88.501,-159.546,-241.882
0.753,1.487,0.865,80.811,-146.423,-270.325
0.552,1.162,1.082,68.848,-134.216,-306.885
0.478,0.477,1.829,54.443,-125.854,-350.525
0.409,-0.044,2.244,30.334,-78.613,-359.558
0.350,-0.455,2.242,20.020,-13.306,-355.896
0.261,-1.017,2.264,22.644,35.828,-347.839
0.184,-1.363,2.244,14.465,78.796,-320.862
0.202,-1.634,2.388,-2.380,112.366,-290.039
0.111,-1.732,2.698,-18.372,145.996,-261.963
0.009,-2.029,2.508,-35.095,199.829,-234.497
-0.043,-2.086,2.413,-55.786,245.239,-188.538
-0.087,-2.154,2.336,-70.435,282.593,-145.569
-0.180,-2.091,2.240,-69.397,320.312,-109.253
-0.276,-1.862,1.970,-56.641,358.887,-72.083
-0.398,-1.714,1.634,-47.241,388.306,-47.729
-0.498,-1.664,1.252,-37.476,406.433,-31.799
-0.595,-1.660,0.815,-24.414,416.382,-17.151
-0.649,-1.708,0.412,-10.620,414.429,-1.831
-0.613,-1.681,0.167,2.014,396.118,16.113
-0.569,-1.620,0.026,20.691,375.366,34.851
-0.515,-1.502,-0.131,49.255,356.445,51.270
-0.505,-1.422,-0.326,84.595,337.097,67.139
-0.472,-1.412,-0.447,104.858,321.167,82.153
-0.445,-1.295,-0.516,119.751,303.589,102.356
-0.441,-1.204,-0.561,132.629,290.588,123.230
-0.465,-1.131,-0.583,136.597,278.625,144.531
-0.514,-1.076,-0.778,131.287,275.757,169.556
-0.551,-1.059,-0.992,122.070,267.578,193.909
-0.580,-1.000,-1.139,116.089,252.502,218.567
-0.600,-0.784,-1.272,111.694,233.826,244.141
-0.602,-0.588,-1.369,99.609,212.219,262.451
-0.565,-0.408,-1.503,91.858,188.599,271.790
-0.525,-0.261,-1.595,92.896,162.842,275.574
-0.482,-0.046,-1.690,90.149,138.306,275.452
-0.429,0.085,-1.777,90.759,113.037,266.602
-0.372,0.087,-1.807,99.182,83.923,252.075
-0.335,0.238,-1.933,107.422,55.603,243.591
-0.288,0.389,-2.067,110.535,23.804,234.741
-0.237,0.373,-2.122,112.122,-13.000,219.482
-0.166,0.382,-2.107,117.615,-47.913,205.872
-0.118,0.390,-1.894,121.033,-83.130,194.580
-0.080,0.380,-1.716,126.831,-111.633,181.946
-0.061,0.436,-1.702,132.141,-129.883,171.448
-0.078,0.494,-1.762,132.568,-147.278,160.645
-0.049,0.750,-1.846,124.084,-169.861,152.954
-0.003,1.051,-1.792,110.413,-202.820,146.545
0.088,1.231,-1.518,93.994,-239.929,134.094
0.187,1.423,-1.274,84.106,-265.442,117.981
0.244,1.564,-1.121,77.881,-278.870,95.764
0.300,1.566,-0.970,76.294,-289.795,66.345
0.368,1.530,-0.669,78.064,-305.786,37.415
0.481,1.577,-0.220,77.698,-318.237,13.000
0.575,1.635,0.131,80.505,-317.871,-10.376
0.622,1.562,0.210,93.689,-304.565,-38.818
0.628,1.395,0.153,113.159,-292.725,-68.604
0.613,1.223,0.174,133.057,-286.621,-95.215
0.602,1.026,0.309,147.583,-289.673,-119.141
0.603,0.785,0.516,155.457,-293.091,-139.282
0.643,0.595,0.812,155.029,-284.119,-153.259
0.680,0.383,1.120,154.297,-269.165,-162.598
0.736,0.236,1.309,151.062,-246.033,-168.030
0.781,0.086,1.376,146.729,-212.585,-170.715
0.802,-0.187,1.439,136.108,-174.622,-171.143
0.817,-0.367,1.425,127.014,-140.503,-163.147
0.833,-0.401,1.347,115.112,-109.192,-147.827
0.805,-0.489,1.228,97.900,-77.515,-134.705
0.790,-0.628,1.071,83.069,-52.673,-121.521
0.807,-0.704,1.027,64.331,-35.950,-102.966
0.853,-0.645,1.079,39.673,-26.855,-80.872
0.903,-0.566,1.161,17.029,-15.686,-61.340
0.944,-0.407,1.199,-4.089,1.831,-44.617
0.953,-0.295,1.164,-19.775,20.386,-33.997
0.923,-0.286,0.967,-27.344,42.603,-28.748
0.883,-0.284,0.694,-27.649,56.580,-23.437
0.878,-0.274,0.507,-28.625,59.937,-18.433
0.876,-0.265,0.378,-25.635,59.326,-14.099
0.872,-0.228,0.278,-19.165,54.810,-9.277
0.887,-0.171,0.236,-14.526,47.241,-5.554
0.905,-0.143,0.208,-9.460,38.391,-3.845
0.924,-0.111,0.230,-2.319,30.334,-3.479
0.942,-0.052,0.267,3.235,23.926,-3.296
0.958,0.005,0.287,8.362,19.897,-4.456
0.977,0.028,0.344,10.803,17.883,-7.019
0.956,0.032,0.309,9.827,18.311,-9.338
0.933,-0.036,0.247,5.981,22.400,-11.353
0.943,-0.087,0.251,1.221,19.592,-11.414
0.946,-0.081,0.269,-2.625,21.240,-8.179
0.950,-0.099,0.274,-4.944,20.630,-6.470
0.934,-0.110,0.205,-3.540,24.719,-4.944
0.926,-0.113,0.141,-1.648,22.583,-2.930
0.920,-0.110,0.135,1.038,19.165,-1.221
0.915,-0.091,0.101,3.967,16.541,1.221
0.922,-0.066,0.102,4.395,13.672,3.540
0.939,-0.015,0.131,1.709,9.766,5.432
0.940,0.047,0.162,0.061,7.019,5.737
0.945,0.059,0.181,1.831,5.432,3.296
0.948,0.029,0.154,2.136,3.967,0.610
0.938,-0.001,0.161,0.854,4.517,-0.427
0.943,-0.013,0.164,-0.183,1.404,0.061
0.945,-0.018,0.176,-0.244,0.793,1.099
0.948,-0.007,0.187,1.343,-1.038,2.197
0.951,0.001,0.224,2.441,-2.563,2.869
0.959,0.011,0.233,2.869,-2.502,3.052
0.957,0.020,0.237,2.014,-1.343,2.991
0.957,0.032,0.240,3.662,-3.357,2.502
0.954,0.043,0.244,6.226,-1.587,1.648
0.951,0.007,0.214,8.179,-1.892,0.549
0.952,-0.027,0.219,6.042,-2.686,0.366
0.946,-0.044,0.240,4.883,-2.930,1.892
0.954,-0.016,0.249,3.052,-3.052,3.601
0.954,-0.010,0.245,2.686,-2.014,4.272
0.958,0.009,0.270,1.160,-1.587,4.211

1.023,1.540,0.420,35.339,-80.872,-149.719
0.987,1.834,0.625,46.814,-85.022,-191.711
0.875,1.781,0.881,44.373,-80.505,-243.835
0.756,1.472,1.213,29.602,-65.552,-294.922
0.859,1.055,1.846,2.808,-46.448,-334.045
0.610,0.619,2.438,-15.381,-8.362,-357.849
0.641,0.337,2.837,-39.124,56.702,-369.568
0.362,-0.087,2.610,-53.711,134.216,-372.253
0.166,-0.666,2.377,-59.814,190.674,-368.896
0.065,-1.281,2.185,-48.096,219.421,-364.868
-0.083,-1.595,1.866,-29.053,252.747,-335.327
-0.193,-1.856,1.535,-29.175,284.546,-299.988
-0.211,-2.072,1.408,-38.940,303.650,-264.526
-0.191,-2.253,1.452,-41.809,310.547,-224.365
-0.202,-2.173,1.451,-37.354,320.435,-172.974
-0.236,-2.110,1.347,-32.532,334.839,-129.150
-0.283,-2.079,1.129,-23.743,349.182,-96.741
-0.358,-1.920,0.977,-10.620,361.084,-66.284
-0.423,-1.799,0.744,9.888,369.873,-41.992
-0.512,-1.773,0.481,31.433,370.972,-25.513
-0.520,-1.778,0.308,46.082,364.136,-9.033
-0.503,-1.715,0.227,68.665,355.103,10.254
-0.498,-1.700,0.165,92.224,342.285,29.480
-0.555,-1.745,0.032,117.981,336.670,52.917
-0.544,-1.739,-0.084,127.258,330.688,84.839
-0.579,-1.564,-0.219,145.325,321.594,122.925
-0.593,-1.348,-0.385,160.645,315.613,160.522
-0.678,-1.123,-0.602,167.908,308.838,192.505
-0.736,-0.983,-0.975,174.072,300.354,216.736
-0.758,-0.918,-1.229,171.570,283.142,235.229
-0.735,-0.685,-1.362,170.532,253.784,254.822
-0.723,-0.456,-1.508,181.641,224.121,267.151
-0.706,-0.325,-1.641,192.261,190.857,267.395
-0.694,-0.261,-1.812,212.585,152.771,264.587
-0.660,-0.135,-1.811,217.407,108.398,262.329
-0.587,0.035,-1.649,204.285,64.331,260.620
-0.486,0.187,-1.490,197.754,30.945,256.348
-0.430,0.357,-1.358,191.040,11.108,250.122
-0.369,0.514,-1.417,185.791,2.808,241.028
-0.313,0.569,-1.492,188.965,-7.690,224.548
-0.318,0.494,-1.591,200.500,-27.222,203.247
-0.346,0.418,-1.675,205.627,-50.354,186.890
-0.268,0.484,-1.755,188.843,-79.529,186.646
-0.169,0.841,-1.736,155.701,-113.708,202.148
-0.091,1.317,-1.743,131.165,-142.456,210.999
-0.023,1.577,-1.813,118.408,-164.124,194.031
0.046,1.717,-1.812,109.619,-190.247,158.997
0.097,1.649,-1.603,115.601,-225.891,113.953
0.140,1.346,-1.245,131.470,-261.230,64.575
0.220,1.285,-0.923,152.771,-289.978,30.640
0.269,1.365,-0.671,178.284,-310.486,5.127
0.313,1.362,-0.600,190.002,-315.674,-23.376
0.333,1.384,-0.619,186.890,-314.880,-51.208
0.336,1.368,-0.529,177.063,-322.449,-77.271
0.369,1.264,-0.224,163.086,-337.219,-103.271
0.446,1.135,0.197,150.269,-346.191,-125.000
0.538,0.989,0.495,136.292,-335.083,-142.029
0.604,0.944,0.633,126.831,-309.387,-155.273
0.636,0.959,0.559,125.793,-278.748,-167.114
0.646,0.885,0.448,127.258,-255.554,-185.303
0.609,0.646,0.458,134.705,-240.479,-208.374
0.562,0.365,0.516,143.494,-232.178,-225.037
0.597,0.101,0.603,147.034,-223.877,-232.056
0.643,-0.250,0.865,148.193,-222.046,-233.459
0.747,-0.497,1.117,141.785,-211.243,-223.328
0.855,-0.633,1.340,130.188,-185.669,-205.017
0.933,-0.686,1.469,117.065,-155.701,-182.861
0.973,-0.774,1.377,107.117,-118.774,-159.119
0.920,-0.643,1.118,94.116,-79.224,-131.775
0.868,-0.723,0.864,87.952,-51.514,-113.281
0.880,-0.832,0.811,68.298,-38.025,-96.191
0.895,-0.668,0.851,37.659,-25.818,-67.505
0.906,-0.504,0.828,13.489,-10.071,-41.870
0.933,-0.406,0.827,-5.859,3.662,-27.222
0.946,-0.375,0.801,-16.907,15.137,-19.104
0.947,-0.363,0.769,-16.296,25.452,-14.465
0.953,-0.312,0.702,-6.409,30.640,-10.193
0.939,-0.280,0.581,3.723,37.720,-8.606
0.926,-0.237,0.447,9.705,41.443,-7.935
0.874,-0.206,0.276,12.695,39.734,-7.141
0.850,-0.182,0.135,9.827,38.391,-4.761
0.872,-0.209,0.142,3.967,27.893,-2.869
0.899,-0.158,0.242,-3.906,18.555,0.793
0.914,-0.104,0.279,-8.423,17.822,4.761
0.919,-0.096,0.281,-11.475,15.625,5.249
0.929,-0.071,0.281,-10.742,16.479,5.493
0.926,-0.091,0.254,-7.324,14.160,4.578
0.930,-0.132,0.262,-5.920,12.634,3.845
0.935,-0.086,0.277,-2.869,9.827,5.920
0.931,-0.017,0.267,0.671,9.766,7.080
0.930,-0.003,0.253,5.066,7.385,4.944
0.922,-0.041,0.253,8.911,6.470,1.587
0.922,-0.069,0.254,8.789,9.277,0.916
0.926,-0.034,0.254,5.737,7.935,2.625
0.935,-0.044,0.271,2.869,7.019,3.357
0.943,-0.052,0.263,-0.610,11.047,4.639
0.939,-0.083,0.251,-5.615,10.742,6.714
0.937,-0.060,0.245,-12.695,11.169,10.132
0.945,0.006,0.248,-17.944,13.672,13.245
0.952,0.066,0.253,-18.066,11.292,13.123
0.942,0.064,0.235,-14.099,12.451,9.644
0.943,0.034,0.212,-10.803,12.451,6.042
0.946,0.036,0.198,-7.812,8.789,4.028
0.941,0.033,0.189,-4.028,9.277,2.441
0.937,0.018,0.177,-2.258,5.798,0.549
0.943,-0.001,0.187,-0.305,5.432,0.000
0.941,-0.034,0.205,1.343,1.770,-0.244
0.938,-0.051,0.181,2.075,4.395,1.038
0.939,-0.045,0.191,1.343,1.831,2.991
0.949,-0.005,0.204,0.000,1.160,4.639
0.954,-0.008,0.233,2.441,-0.671,4.883
0.966,0.004,0.240,2.197,0.122,4.456
0.964,0.049,0.241,3.113,0.977,4.150
0.964,0.042,0.265,3.052,-1.282,1.953
0.959,0.025,0.238,2.319,2.258,0.244
0.959,-0.011,0.222,1.709,1.099,-0.671
0.957,-0.016,0.238,-1.404,1.404,0.061
0.962,-0.019,0.233,-4.333,2.075,1.587
0.963,-0.032,0.241,-7.263,1.282,2.502

1.140,1.495,0.272,25.940,-85.083,-15.869
1.137,1.605,0.196,54.993,-81.421,-57.861
1.069,1.612,0.217,84.656,-87.891,-104.126
1.019,1.708,0.324,105.347,-92.957,-147.034
0.936,1.552,0.388,115.417,-91.675,-193.665
0.824,1.151,0.420,115.662,-89.722,-237.427
0.789,0.743,0.623,98.633,-90.332,-266.296
0.723,0.541,0.927,77.026,-86.304,-280.701
0.703,0.533,1.114,63.660,-66.833,-290.405
0.623,0.626,1.298,63.904,-45.288,-305.298
0.565,0.697,1.638,57.190,-25.574,-324.768
0.362,0.629,2.089,35.034,1.099,-343.140
0.239,0.017,2.522,1.770,44.983,-366.272
0.061,-0.667,2.737,-25.635,103.027,-373.047
-0.015,-1.294,2.700,-39.185,170.959,-359.741
-0.088,-1.923,2.572,-36.743,228.760,-336.121
-0.202,-2.321,2.188,-32.959,284.302,-295.776
-0.297,-2.499,1.691,-25.818,326.050,-242.249
-0.326,-2.529,1.368,-18.494,347.168,-188.843
-0.333,-2.379,1.184,-5.737,354.004,-138.794
-0.409,-2.090,0.983,15.503,358.704,-96.008
-0.451,-1.774,0.766,29.114,364.136,-61.584
-0.460,-1.759,0.584,35.034,365.173,-43.701
-0.506,-1.854,0.431,41.199,365.906,-28.137
-0.557,-1.830,0.283,36.987,360.962,-5.432
-0.545,-1.814,0.147,39.795,356.140,17.029
-0.552,-1.766,0.046,50.659,343.140,37.903
-0.536,-1.732,-0.150,59.204,334.045,59.143
-0.508,-1.809,-0.261,61.951,319.397,79.041
-0.482,-1.843,-0.196,61.523,302.063,103.455
-0.469,-1.752,-0.201,69.275,295.898,135.315
-0.465,-1.513,-0.347,92.224,290.100,168.396
-0.460,-1.281,-0.481,111.938,281.860,194.580
-0.472,-1.077,-0.598,129.456,270.996,214.355
-0.528,-0.991,-0.788,139.587,263.550,230.042
-0.575,-0.969,-0.993,139.099,253.906,245.178
-0.608,-0.882,-1.130,135.010,238.770,265.259
-0.635,-0.700,-1.208,126.648,217.773,287.842
-0.610,-0.423,-1.284,116.028,196.411,308.167
-0.556,-0.048,-1.395,111.328,174.072,320.740
-0.497,0.325,-1.519,116.821,150.635,319.946
-0.432,0.533,-1.646,127.930,123.657,298.889
-0.362,0.616,-1.768,143.066,94.971,267.822
-0.338,0.597,-1.947,153.931,64.758,236.755
-0.362,0.527,-2.257,163.879,30.396,209.045
-0.347,0.444,-2.417,163.391,-14.099,188.110
-0.294,0.380,-2.293,166.199,-71.960,172.607
-0.280,0.478,-2.081,177.612,-127.808,162.781
-0.234,0.738,-1.913,178.528,-170.593,154.480
-0.170,1.009,-1.833,169.495,-206.787,142.456
-0.098,1.155,-1.709,155.457,-239.197,125.183
-0.029,1.201,-1.459,142.517,-272.095,103.577
0.011,1.274,-1.258,132.507,-298.706,81.360
0.072,1.350,-1.114,124.329,-320.190,57.556
0.121,1.287,-0.907,116.089,-340.393,27.405
0.216,1.275,-0.607,109.802,-358.032,1.587
0.338,1.365,-0.227,105.469,-367.310,-15.869
0.459,1.385,0.121,109.314,-369.263,-36.621
0.522,1.275,0.244,117.798,-355.591,-63.416
0.534,1.097,0.234,124.146,-338.623,-91.003
0.527,0.854,0.260,128.540,-330.200,-113.464
0.594,0.572,0.473,129.761,-325.134,-126.770
0.621,0.670,0.754,127.319,-320.618,-124.817
0.688,0.566,0.944,127.869,-307.434,-132.019
0.735,0.573,1.067,124.939,-285.156,-142.090
0.768,0.478,1.138,129.150,-260.132,-152.222
0.769,0.294,1.132,127.258,-233.093,-164.307
0.800,0.041,1.170,117.310,-207.275,-170.898
0.930,-0.176,1.430,93.750,-184.021,-168.518
0.832,-0.038,1.454,65.796,-152.710,-153.076
0.825,-0.406,1.309,49.011,-115.051,-157.410
0.839,-0.602,1.257,36.560,-84.900,-149.475
0.848,-0.704,1.241,26.123,-62.744,-129.761
0.864,-0.800,1.138,24.658,-42.542,-111.755
0.871,-0.800,1.041,25.574,-25.391,-92.407
0.888,-0.776,0.940,25.146,-10.254,-71.838
0.911,-0.730,0.841,18.921,3.052,-53.406
0.924,-0.641,0.812,13.245,12.512,-36.499
0.935,-0.534,0.775,10.925,19.409,-23.315
0.938,-0.434,0.701,11.719,28.198,-13.611
0.928,-0.334,0.624,9.033,36.133,-6.958
0.904,-0.266,0.543,7.141,40.833,-2.869
0.900,-0.244,0.415,6.714,41.687,-1.648
0.881,-0.223,0.320,2.869,42.725,0.854
0.876,-0.223,0.273,-4.700,41.565,3.967
0.891,-0.225,0.280,-12.390,35.889,7.080
0.913,-0.207,0.311,-15.564,28.015,9.705
0.927,-0.163,0.307,-12.573,23.743,11.108
0.938,-0.122,0.294,-5.310,21.667,10.193
0.929,-0.145,0.308,2.014,19.714,7.446
0.924,-0.145,0.297,7.446,15.869,6.104
0.918,-0.134,0.259,10.925,14.038,6.531
0.927,-0.110,0.287,8.911,13.489,7.324
0.928,-0.089,0.323,4.089,13.855,8.484
0.932,-0.092,0.311,1.343,13.184,8.789
0.926,-0.094,0.301,0.061,16.052,9.155
0.921,-0.110,0.311,-2.686,19.165,9.460
0.916,-0.102,0.277,-4.761,19.043,10.620
0.923,-0.083,0.230,-5.981,20.203,12.146
0.919,-0.083,0.258,-6.836,18.494,12.756
0.923,-0.057,0.258,-7.263,17.151,13.123
0.923,-0.007,0.199,-5.188,19.104,13.184
0.923,0.005,0.194,-1.099,15.381,11.108
0.926,-0.033,0.253,2.075,8.606,7.812
0.936,-0.016,0.259,4.272,9.399,6.775
0.928,-0.004,0.223,6.409,10.010,6.165
0.927,-0.008,0.245,4.761,5.066,4.822
0.935,-0.011,0.263,2.686,5.127,4.089
0.936,-0.002,0.253,4.272,6.775,3.418
0.935,-0.014,0.251,4.639,5.127,2.014
0.937,-0.039,0.255,3.418,7.080,1.099
0.933,-0.059,0.254,3.052,5.127,1.099
0.933,-0.060,0.235,1.160,3.418,2.380
0.933,-0.074,0.226,-0.977,4.761,3.784
0.941,-0.060,0.260,-3.662,3.113,5.920
0.956,-0.026,0.276,-6.470,1.160,7.568
0.960,-0.004,0.269,-5.493,4.578,7.385
0.954,-0.029,0.261,-2.319,3.784,5.127
0.952,-0.033,0.259,-2.563,1.404,4.272

0.940,1.304,1.303,237.610,-170.227,-235.352
0.901,1.202,1.992,204.956,-146.729,-271.606
0.806,0.908,2.565,147.644,-91.003,-303.894
0.706,0.633,3.057,69.824,-14.832,-325.623
0.480,0.267,3.360,-3.601,71.411,-341.614
0.209,-0.101,3.328,-51.941,154.724,-355.469
-0.095,-0.596,2.978,-69.519,233.215,-368.225
-0.288,-1.095,2.564,-63.293,292.542,-371.460
-0.460,-1.563,2.275,-45.227,329.163,-360.596
-0.571,-2.118,1.992,-23.376,360.840,-339.417
-0.631,-2.390,1.519,-9.399,389.526,-303.528
-0.687,-2.719,1.169,-2.075,400.818,-256.287
-0.644,-2.825,1.102,-8.301,399.109,-192.505
-0.656,-2.480,1.010,-1.282,397.095,-118.713
-0.681,-1.948,0.868,7.141,403.076,-55.359
-0.735,-1.777,0.682,6.470,412.842,-25.635
-0.807,-1.825,0.438,8.240,422.668,-9.644
-0.861,-1.843,0.156,15.259,424.744,9.888
-0.921,-1.792,-0.120,25.879,415.222,31.921
-0.877,-1.744,-0.408,33.569,401.611,52.612
-0.859,-1.715,-0.532,45.837,374.512,68.298
-0.773,-1.730,-0.504,58.960,343.140,81.177
-0.742,-1.693,-0.502,81.726,315.491,98.267
-0.744,-1.602,-0.609,101.746,297.424,119.995
-0.753,-1.537,-0.804,116.516,282.349,143.860
-0.705,-1.482,-0.845,122.375,260.925,169.678
-0.641,-1.329,-0.771,129.395,237.000,197.144
-0.650,-1.063,-0.906,145.691,220.520,224.426
-0.660,-0.869,-1.066,161.499,205.200,243.713
-0.628,-0.732,-1.143,169.373,184.448,255.859
-0.583,-0.610,-1.204,171.875,162.476,265.808
-0.572,-0.525,-1.257,171.753,139.404,273.254
-0.567,-0.353,-1.348,173.584,115.417,280.823
-0.523,-0.131,-1.452,179.138,89.172,285.583
-0.469,0.037,-1.462,182.007,58.472,282.898
-0.409,0.248,-1.412,182.739,26.367,275.452
-0.329,0.462,-1.403,191.345,0.916,263.245
-0.286,0.536,-1.473,203.369,-18.494,243.469
-0.290,0.435,-1.615,210.205,-38.330,219.727
-0.308,0.347,-1.719,208.984,-64.697,204.468
-0.306,0.401,-1.714,206.421,-98.389,198.730
-0.294,0.611,-1.834,201.782,-130.920,199.768
-0.309,0.805,-2.026,184.265,-164.917,200.745
-0.284,1.042,-1.963,155.396,-210.388,197.083
-0.196,1.360,-1.645,131.958,-259.888,189.026
-0.073,1.628,-1.264,126.465,-302.673,167.603
0.031,1.687,-0.832,134.705,-333.252,127.197
0.135,1.677,-0.553,139.771,-345.947,83.130
0.242,1.650,-0.370,138.000,-348.877,44.373
0.326,1.603,-0.242,129.211,-348.572,11.230
0.366,1.584,-0.093,121.521,-346.436,-15.808
0.458,1.515,0.178,114.197,-344.421,-41.321
0.543,1.360,0.507,108.276,-337.830,-67.078
0.643,1.239,0.794,96.802,-322.144,-87.769
0.720,1.111,0.967,88.623,-295.959,-103.210
0.751,0.971,0.963,83.374,-262.146,-116.760
0.787,0.916,0.888,79.712,-235.107,-126.953
0.828,0.910,0.917,69.580,-216.125,-136.719
0.854,0.810,0.948,59.387,-199.341,-151.184
0.851,0.700,0.946,51.453,-182.556,-165.405
0.823,0.430,0.942,50.903,-166.565,-178.833
0.797,0.162,0.924,53.406,-155.151,-189.270
0.790,-0.040,0.926,56.641,-142.273,-188.660
0.799,-0.261,0.967,58.472,-130.188,-185.364
0.802,-0.461,0.952,57.922,-116.150,-176.270
0.831,-0.633,0.962,49.438,-99.060,-161.621
0.871,-0.708,0.987,39.124,-81.909,-139.099
0.900,-0.729,0.981,30.396,-67.627,-114.441
0.943,-0.676,1.033,14.404,-49.683,-90.820
0.973,-0.493,0.997,-0.183,-31.006,-67.139
0.994,-0.308,0.939,-10.132,-15.015,-53.467
0.960,-0.225,0.843,-10.925,-0.122,-49.072
0.922,-0.232,0.682,-7.080,7.874,-49.561
0.928,-0.238,0.633,-2.319,9.766,-49.194
0.931,-0.270,0.654,4.089,8.728,-47.424
0.935,-0.348,0.642,6.714,13.916,-44.312
0.914,-0.230,0.652,-0.183,17.639,-33.936
0.880,-0.388,0.479,-3.052,24.719,-28.198
0.906,-0.489,0.434,-3.845,28.076,-27.344
0.893,-0.377,0.452,-3.540,26.245,-12.878
0.910,-0.284,0.417,-5.005,26.428,-3.113
0.913,-0.222,0.390,-6.958,29.785,0.305
0.903,-0.155,0.333,-8.423,28.137,2.747
0.903,-0.108,0.267,-8.911,29.724,3.601
0.905,-0.070,0.193,-8.423,25.879,3.357
0.897,-0.084,0.178,-7.874,22.766,2.319
0.907,-0.113,0.236,-10.071,17.029,2.014
0.910,-0.114,0.238,-10.620,12.634,3.357
0.909,-0.112,0.256,-11.719,13.611,4.333
0.899,-0.109,0.263,-10.986,12.207,4.944
0.899,-0.117,0.242,-9.460,10.071,6.104
0.911,-0.114,0.268,-10.010,10.254,7.812
0.925,-0.031,0.269,-7.141,10.681,10.254
0.930,-0.005,0.277,-2.563,7.202,9.583
0.929,-0.010,0.305,-1.770,8.484,7.568
0.924,-0.012,0.284,-2.136,11.292,6.836
0.917,0.000,0.233,-3.052,10.071,6.775
0.921,-0.005,0.230,-7.996,10.376,6.836
0.935,0.012,0.282,-12.878,8.545,7.446
0.939,0.034,0.277,-12.878,9.827,6.958
0.931,-0.005,0.271,-9.644,8.667,4.333
0.938,-0.016,0.276,-7.935,8.911,3.296
0.937,-0.013,0.260,-5.371,7.324,3.479
0.931,-0.044,0.237,-3.113,6.653,2.869
0.939,-0.047,0.248,-4.272,4.578,3.784
0.949,-0.007,0.279,-3.967,5.005,5.493
0.964,0.027,0.278,-1.709,2.380,5.371
0.961,0.009,0.269,0.183,3.052,3.418
0.962,0.026,0.268,-1.831,5.493,3.113
0.965,0.021,0.280,-2.808,3.174,2.625
0.967,0.004,0.286,-3.174,2.747,1.404
0.961,-0.006,0.261,-2.991,6.287,1.160
0.962,0.020,0.242,-5.066,4.517,1.648
0.971,0.034,0.243,-7.446,2.991,1.282
0.964,-0.000,0.264,-5.432,3.113,-0.488
0.963,0.008,0.249,-3.479,2.197,-0.854
0.957,0.004,0.213,-1.831,4.944,-1.099
0.958,-0.038,0.228,-0.610,1.526,-1.892
0.958,-0.078,0.260,-1.831,0.732,-1.465

0.989,1.423,0.391,21.057,-64.026,-200.623
0.841,1.469,0.341,36.499,-61.035,-242.371
0.726,1.271,0.418,44.128,-59.326,-291.260
0.560,0.917,0.511,54.932,-56.641,-337.585
0.432,0.563,0.448,66.711,-45.227,-369.507
0.331,0.043,0.477,66.772,-34.790,-390.991
0.231,-0.285,0.490,55.725,-28.076,-399.353
0.241,-0.912,0.628,55.176,-24.231,-404.114
0.260,-1.081,0.789,49.438,-17.700,-376.587
0.281,-1.064,0.878,47.180,-6.653,-334.351
0.252,-1.052,1.008,45.898,9.399,-301.086
0.247,-1.068,1.249,39.368,22.217,-277.222
0.187,-1.241,1.410,31.860,47.546,-261.230
0.170,-1.389,1.482,19.348,77.759,-242.004
0.144,-1.528,1.521,7.019,106.995,-219.543
0.065,-1.725,1.440,7.202,136.658,-195.374
-0.003,-1.944,1.295,5.615,162.964,-166.931
-0.052,-2.105,1.172,4.883,182.190,-132.202
-0.082,-2.164,1.106,3.235,194.519,-93.262
-0.115,-2.162,1.022,1.038,208.740,-54.016
-0.146,-2.012,0.928,-4.150,220.825,-16.846
-0.153,-1.872,0.743,-4.944,229.370,12.939
-0.166,-1.747,0.576,4.150,233.154,35.583
-0.170,-1.697,0.421,14.282,228.516,54.260
-0.155,-1.683,0.304,28.503,220.215,71.167
-0.141,-1.683,0.208,44.983,208.496,90.637
-0.118,-1.677,0.124,55.603,197.083,113.159
-0.068,-1.597,0.143,64.514,184.448,137.390
-0.012,-1.496,0.241,74.402,172.363,160.645
0.046,-1.478,0.332,80.933,168.152,181.213
0.056,-1.285,0.302,87.463,169.617,203.674
0.100,-1.068,0.237,92.346,173.889,222.656
0.108,-0.996,0.197,94.727,179.199,231.079
0.090,-0.932,0.048,92.285,187.378,237.915
0.057,-0.819,-0.195,91.064,195.679,247.498
0.042,-0.733,-0.344,93.994,194.092,256.592
0.026,-0.637,-0.442,93.506,187.012,265.564
0.056,-0.471,-0.599,92.407,179.138,272.888
0.095,-0.326,-0.749,102.234,168.030,274.231
0.075,-0.369,-0.809,120.605,149.719,268.127
0.074,-0.460,-0.771,125.854,132.996,265.137
0.036,-0.492,-0.857,124.146,125.000,272.400
-0.045,-0.393,-1.094,127.930,116.211,287.292
-0.106,-0.141,-1.359,120.667,101.501,306.152
-0.082,0.082,-1.505,101.929,79.285,317.810
-0.057,0.269,-1.474,90.088,50.049,320.862
-0.003,0.464,-1.393,89.722,21.606,317.139
0.020,0.675,-1.429,102.051,-3.662,305.542
0.052,0.822,-1.397,113.892,-32.043,286.865
0.102,1.051,-1.277,116.821,-63.293,269.470
0.182,1.368,-1.224,115.173,-86.243,252.686
0.257,1.550,-1.187,113.647,-103.943,224.792
0.340,1.595,-1.084,111.328,-121.338,188.110
0.367,1.371,-0.988,112.183,-136.169,147.339
0.375,1.134,-1.015,108.093,-145.020,114.685
0.368,1.000,-1.062,103.210,-158.325,94.849
0.368,1.028,-1.032,97.046,-175.903,85.144
0.379,1.050,-0.875,89.905,-195.862,75.806
0.419,1.070,-0.628,86.365,-213.074,64.148
0.494,1.259,-0.322,80.261,-224.487,53.406
0.592,1.550,-0.053,77.209,-228.394,39.856
0.675,1.662,0.130,79.041,-222.839,15.076
0.757,1.635,0.289,79.163,-208.740,-14.465
0.820,1.622,0.408,78.491,-194.031,-44.861
0.799,1.606,0.295,82.886,-173.706,-73.730
0.735,1.467,0.084,80.261,-154.968,-103.455
0.703,1.241,-0.016,75.073,-150.757,-130.066
0.700,1.033,0.145,67.749,-153.748,-149.292
0.725,0.899,0.354,58.228,-156.372,-161.621
0.753,0.735,0.457,54.688,-149.414,-172.546
0.768,0.529,0.510,54.321,-135.315,-180.969
0.797,0.401,0.519,59.875,-123.352,-184.326
0.800,0.275,0.510,74.829,-116.577,-184.082
0.797,0.221,0.467,77.271,-110.657,-181.091
0.797,0.271,0.434,67.383,-101.318,-175.049
0.775,0.201,0.520,51.453,-95.398,-169.922
0.774,-0.049,0.570,34.973,-88.989,-167.053
0.776,-0.346,0.597,26.917,-77.271,-161.987
0.828,-0.432,0.718,18.311,-72.144,-141.602
0.859,-0.464,0.765,13.855,-61.523,-123.352
0.861,-0.386,0.658,18.433,-50.110,-107.727
0.859,-0.313,0.597,23.254,-47.363,-96.985
0.850,-0.271,0.608,27.283,-45.166,-90.332
0.864,-0.282,0.647,30.212,-42.542,-85.144
0.887,-0.320,0.735,27.100,-39.734,-79.529
0.906,-0.358,0.803,18.250,-32.410,-71.594
0.881,-0.243,0.825,4.883,-20.752,-59.204
0.904,-0.484,0.799,0.305,-9.460,-54.993
0.898,-0.445,0.739,-1.770,-0.854,-43.579
0.889,-0.435,0.667,-4.822,5.432,-31.494
0.883,-0.411,0.583,-4.639,8.789,-22.827
0.884,-0.367,0.563,-0.916,7.751,-15.076
0.891,-0.304,0.578,-1.892,5.981,-9.277
0.900,-0.261,0.530,0.122,10.681,-5.981
0.899,-0.214,0.527,3.967,9.399,-3.906
0.891,-0.200,0.511,5.676,10.559,-3.662
0.881,-0.224,0.439,6.348,15.686,-4.089
0.866,-0.238,0.389,5.615,14.954,-2.808
0.868,-0.194,0.372,1.892,16.418,-0.122
0.882,-0.148,0.383,-0.671,13.977,1.892
0.875,-0.188,0.381,0.244,16.174,1.160
0.875,-0.188,0.362,-0.122,17.273,1.709
0.878,-0.138,0.341,-1.160,15.198,4.456
0.887,-0.109,0.345,-2.991,14.343,5.432
0.899,-0.112,0.333,-3.113,13.428,5.371
0.901,-0.128,0.361,-3.174,10.620,5.310
0.903,-0.079,0.374,-3.418,13.000,7.263
0.915,-0.053,0.347,-1.892,12.512,7.751
0.910,-0.079,0.345,0.244,14.832,6.714
0.909,-0.105,0.328,0.244,15.991,6.714
0.892,-0.094,0.267,-1.892,18.494,8.606
0.898,-0.048,0.222,-5.005,17.334,11.230
0.910,-0.027,0.244,-7.263,15.442,12.329
0.930,0.020,0.265,-7.629,14.404,12.512
0.929,0.037,0.273,-4.517,10.376,10.620
0.929,0.057,0.240,-1.038,10.681,7.751
0.927,0.024,0.237,1.770,10.864,4.761
0.931,-0.015,0.269,2.258,5.432,2.869
0.930,-0.039,0.274,2.930,4.822,2.686

0.997,1.104,0.570,81.726,-53.223,-135.193
0.969,1.084,0.787,97.351,-52.979,-173.706
0.945,1.031,1.091,108.765,-50.110,-210.571
0.908,0.969,1.445,106.262,-35.339,-242.126
0.805,0.817,1.812,83.862,-4.517,-265.381
0.721,0.448,2.109,52.124,40.527,-285.583
0.611,0.027,2.361,19.104,91.248,-296.753
0.437,-0.433,2.344,-13.123,147.705,-298.706
0.339,-1.012,2.289,-36.438,203.064,-293.030
0.170,-1.511,2.146,-50.415,249.451,-273.132
0.076,-1.839,1.966,-67.871,289.551,-237.305
0.005,-1.935,1.945,-87.402,322.693,-190.369
-0.097,-1.876,1.785,-93.689,355.957,-146.851
-0.282,-1.915,1.565,-88.562,388.367,-114.258
-0.382,-2.109,1.206,-85.083,419.434,-85.083
-0.462,-2.182,0.945,-84.839,438.660,-52.246
-0.497,-2.014,0.653,-78.125,445.557,-16.785
-0.524,-1.874,0.279,-50.537,446.594,8.057
-0.536,-1.757,0.015,-24.414,430.847,25.513
-0.503,-1.620,-0.131,-6.042,410.522,41.931
-0.468,-1.521,-0.299,13.733,392.456,55.115
-0.449,-1.510,-0.403,28.625,376.343,67.993
-0.415,-1.343,-0.460,36.438,361.511,85.510
-0.387,-1.178,-0.613,52.612,348.267,101.746
-0.370,-1.176,-0.735,64.697,331.665,114.380
-0.369,-1.097,-0.849,66.162,314.575,131.287
-0.344,-0.929,-0.977,72.266,297.607,151.794
-0.326,-0.826,-0.981,73.792,278.503,167.419
-0.336,-0.850,-1.112,72.815,265.991,179.443
-0.375,-0.857,-1.306,73.975,252.686,192.932
-0.394,-0.778,-1.494,76.233,233.215,209.106
-0.380,-0.725,-1.551,83.130,204.102,223.206
-0.386,-0.638,-1.592,90.210,172.729,233.765
-0.384,-0.553,-1.676,95.459,146.240,242.493
-0.415,-0.535,-1.730,98.572,120.361,247.803
-0.517,-0.441,-2.037,97.351,98.450,253.845
-0.521,-0.312,-2.346,88.745,71.167,260.559
-0.479,-0.174,-2.358,75.317,26.123,266.235
-0.418,0.029,-2.303,65.247,-19.226,273.621
-0.401,0.278,-2.306,56.274,-58.167,277.649
-0.390,0.437,-2.421,54.443,-95.154,272.400
-0.405,0.519,-2.357,61.890,-141.724,260.864
-0.367,0.702,-2.107,72.754,-192.932,248.108
-0.308,0.911,-1.779,90.210,-241.882,227.539
-0.212,1.073,-1.469,115.356,-281.250,196.533
-0.107,1.141,-1.066,140.137,-316.589,158.997
0.029,1.253,-0.742,165.405,-339.905,124.573
0.139,1.348,-0.586,190.125,-346.252,91.553
0.220,1.376,-0.505,199.280,-343.567,57.739
0.282,1.388,-0.512,193.298,-336.731,27.100
0.281,1.404,-0.680,181.274,-326.111,0.793
0.324,1.312,-0.640,166.260,-327.881,-25.330
0.395,1.184,-0.200,156.433,-341.187,-50.354
0.488,0.976,0.236,156.189,-343.933,-73.730
0.559,0.722,0.401,161.255,-324.768,-92.834
0.566,0.532,0.400,161.621,-299.438,-104.187
0.556,0.464,0.255,159.241,-277.222,-108.459
0.605,0.485,0.345,158.936,-269.653,-110.657
0.679,0.525,0.732,161.377,-269.226,-115.051
0.725,0.534,0.970,168.518,-255.371,-125.061
0.736,0.422,0.959,182.007,-229.797,-139.893
0.738,0.188,0.978,188.477,-205.811,-153.992
0.725,0.011,1.008,188.049,-185.547,-158.752
0.699,-0.186,0.997,184.998,-162.476,-156.372
0.765,-0.331,0.988,173.462,-139.954,-147.156
0.709,-0.134,1.044,146.912,-118.347,-128.357
0.795,-0.450,0.994,131.653,-99.060,-123.840
0.805,-0.477,1.076,128.540,-87.158,-114.807
0.840,-0.461,1.140,125.732,-70.190,-96.313
0.856,-0.447,1.125,117.126,-50.659,-82.642
0.861,-0.437,1.098,108.215,-32.837,-71.228
0.863,-0.447,1.050,95.642,-14.526,-61.401
0.870,-0.496,0.989,81.299,0.488,-51.086
0.863,-0.459,0.942,64.026,15.503,-38.025
0.829,-0.391,0.768,47.729,28.992,-25.146
0.828,-0.366,0.607,30.151,38.025,-15.259
0.852,-0.359,0.646,13.184,38.330,-7.080
0.860,-0.326,0.634,3.418,40.161,0.244
0.875,-0.297,0.602,2.625,42.969,4.761
0.887,-0.286,0.617,7.080,42.297,7.202
0.901,-0.248,0.598,13.245,43.152,7.996
0.894,-0.274,0.478,21.606,46.997,6.958
0.880,-0.307,0.366,25.940,47.058,7.385
0.875,-0.234,0.333,25.940,41.748,11.292
0.893,-0.187,0.349,22.522,35.950,14.221
0.881,-0.211,0.334,16.602,34.973,14.771
0.876,-0.194,0.275,9.888,34.363,17.090
0.896,-0.106,0.282,0.671,31.250,20.325
0.912,-0.064,0.309,-8.667,29.236,20.020
0.910,-0.090,0.287,-12.573,28.320,16.846
0.901,-0.084,0.238,-11.536,26.184,15.076
0.899,-0.069,0.233,-9.460,21.790,14.465
0.908,-0.068,0.260,-8.728,17.517,13.428
0.901,-0.107,0.249,-7.996,15.808,12.573
0.906,-0.116,0.256,-6.836,14.099,13.367
0.906,-0.097,0.273,-3.906,11.780,14.832
0.902,-0.087,0.283,-0.244,10.620,15.381
0.912,-0.061,0.294,1.587,9.766,15.808
0.923,-0.053,0.306,4.150,9.949,15.930
0.930,-0.024,0.295,4.211,10.559,16.113
0.930,0.031,0.267,1.709,13.184,17.639
0.932,0.079,0.243,-2.075,13.611,17.822
0.933,0.059,0.255,-3.174,12.390,15.442
0.936,0.052,0.253,-2.258,10.803,13.306
0.933,0.034,0.254,0.061,10.742,11.475
0.926,0.055,0.209,1.404,9.094,9.827
0.923,0.048,0.198,1.831,6.409,7.935
0.938,0.077,0.245,2.502,2.869,6.531
0.935,0.046,0.258,3.967,2.197,4.150
0.933,0.005,0.269,3.906,1.892,2.075
0.932,-0.003,0.258,3.845,1.770,2.075
0.921,-0.047,0.238,4.700,2.502,1.770
0.928,-0.062,0.244,5.737,0.000,2.563
0.927,-0.065,0.266,8.850,-0.183,3.784
0.929,-0.072,0.268,10.437,-2.502,4.883
0.928,-0.059,0.246,10.620,-0.793,6.775
0.930,-0.063,0.239,9.583,-2.136,8.606
0.947,-0.021,0.264,6.104,-3.174,10.620
0.964,0.053,0.298,6.714,-3.723,11.536

1.133,1.482,0.432,94.788,-50.720,-84.900
1.114,1.870,0.464,103.577,-50.110,-123.962
1.033,2.062,0.427,118.164,-51.147,-179.504
0.909,2.073,0.382,134.460,-53.162,-245.850
0.761,1.782,0.504,155.334,-58.655,-314.209
0.604,1.161,0.578,176.208,-55.298,-372.620
0.345,0.658,0.718,170.166,-42.664,-400.330
0.267,-0.310,1.045,155.518,-28.992,-413.269
0.266,-0.896,1.581,128.601,-9.399,-396.912
0.285,-1.048,2.247,81.421,23.682,-351.501
0.280,-1.277,2.684,25.513,78.796,-312.683
0.159,-1.486,2.728,-18.677,146.484,-282.715
-0.032,-1.803,2.388,-45.288,215.576,-255.981
-0.198,-2.085,2.173,-68.115,266.968,-225.525
-0.342,-2.276,1.821,-81.421,305.786,-187.683
-0.414,-2.534,1.508,-84.656,330.139,-149.719
-0.505,-2.723,1.265,-85.754,347.046,-108.826
-0.542,-2.834,0.901,-85.876,361.511,-62.500
-0.597,-2.734,0.551,-83.862,366.699,-16.785
-0.632,-2.624,0.267,-69.824,361.755,22.644
-0.638,-2.442,0.155,-47.363,345.581,57.678
-0.632,-2.128,-0.065,-18.311,330.444,88.989
-0.615,-1.949,-0.239,9.216,311.646,109.924
-0.565,-1.905,-0.213,30.762,285.583,123.108
-0.496,-1.703,-0.098,52.307,261.353,139.221
-0.418,-1.452,-0.103,71.899,245.422,155.457
-0.346,-1.245,-0.154,87.891,231.628,163.147
-0.279,-1.188,-0.167,94.788,221.558,166.382
-0.248,-1.160,-0.244,99.915,214.355,171.814
-0.222,-1.143,-0.277,106.628,208.496,183.411
-0.218,-1.062,-0.274,105.469,206.543,201.721
-0.238,-0.901,-0.402,104.614,211.121,223.206
-0.295,-0.751,-0.626,108.459,214.355,242.920
-0.332,-0.716,-0.801,106.384,211.365,259.583
-0.357,-0.612,-0.910,100.647,201.782,279.724
-0.387,-0.270,-1.076,90.576,192.627,303.223
-0.386,-0.010,-1.237,78.918,181.519,317.871
-0.391,0.165,-1.442,69.214,166.260,321.777
-0.394,0.470,-1.854,62.134,150.818,324.341
-0.324,0.728,-2.143,58.838,124.939,320.190
-0.216,0.906,-2.195,60.913,85.571,306.274
-0.121,1.040,-2.193,71.594,43.579,285.461
-0.090,1.082,-2.201,87.769,4.272,257.996
-0.056,1.112,-2.117,102.234,-36.316,227.600
-0.051,1.119,-2.029,115.356,-77.393,199.341
0.017,1.190,-1.967,117.310,-112.854,175.537
0.073,1.417,-1.907,110.107,-144.836,156.982
0.156,1.698,-1.747,95.764,-176.758,137.268
0.248,1.875,-1.519,83.069,-206.055,109.619
0.332,1.884,-1.346,78.125,-227.112,72.021
0.401,1.786,-1.135,78.186,-246.460,31.799
0.427,1.648,-1.005,80.688,-259.033,-3.479
0.409,1.449,-1.010,82.336,-265.381,-35.767
0.423,1.282,-0.937,76.721,-276.855,-61.462
0.445,1.147,-0.606,66.345,-294.495,-80.261
0.469,0.981,-0.275,61.157,-305.664,-95.459
0.483,0.815,-0.182,59.509,-303.406,-107.483
0.479,0.589,-0.073,58.716,-300.598,-115.173
0.508,0.419,0.342,53.101,-305.969,-117.004
0.601,0.422,0.744,49.500,-303.894,-112.183
0.693,0.444,1.073,50.659,-287.781,-109.680
0.808,0.547,1.370,47.668,-265.076,-109.253
0.892,0.610,1.518,48.157,-229.736,-114.014
0.904,0.482,1.506,53.711,-191.406,-126.892
0.912,0.276,1.421,58.350,-158.386,-140.259
0.877,0.006,1.294,68.726,-129.761,-149.841
0.853,-0.292,1.157,80.383,-108.215,-153.259
0.858,-0.532,1.125,80.933,-88.379,-146.545
0.875,-0.747,1.132,72.205,-73.975,-131.165
0.904,-0.815,1.130,53.101,-56.396,-107.056
0.919,-0.760,1.098,32.288,-32.776,-78.613
0.945,-0.666,1.041,12.573,-15.320,-53.711
0.955,-0.482,1.004,-4.211,4.150,-33.447
0.941,-0.378,0.860,-11.780,21.484,-21.667
0.920,-0.335,0.649,-12.207,31.189,-15.991
0.900,-0.293,0.469,-10.742,34.851,-12.268
0.880,-0.266,0.348,-8.667,36.560,-9.277
0.868,-0.238,0.253,-7.141,31.860,-6.653
0.882,-0.223,0.213,-6.104,27.466,-4.333
0.887,-0.237,0.231,-2.747,20.691,-2.991
0.902,-0.246,0.219,1.221,17.212,-1.953
0.896,-0.245,0.167,6.470,15.198,-0.183
0.901,-0.222,0.167,8.667,8.606,2.319
0.916,-0.182,0.243,8.118,3.357,5.310
0.916,-0.135,0.234,9.583,0.793,7.874
0.920,-0.111,0.205,10.803,2.502,9.399
0.932,-0.056,0.210,10.193,0.610,10.376
0.930,-0.030,0.243,8.362,-1.221,9.583
0.930,0.003,0.256,5.981,-0.427,8.362
0.938,0.016,0.278,3.418,-0.854,7.019
0.928,0.003,0.267,1.953,1.526,5.554
0.938,-0.021,0.259,0.305,1.831,4.700
0.939,-0.033,0.255,0.366,4.272,4.822
0.930,-0.064,0.247,1.892,3.479,4.761
0.930,-0.089,0.242,2.808,4.272,4.883
0.930,-0.072,0.255,2.808,2.869,6.775
0.931,-0.061,0.258,4.639,1.160,7.874
0.936,-0.049,0.242,6.836,2.380,8.850
0.943,-0.028,0.245,8.911,0.549,10.010
0.957,0.052,0.257,9.583,0.183,11.047
0.951,0.099,0.222,10.681,1.404,8.850
0.953,0.105,0.235,10.925,0.122,4.944
0.951,0.084,0.270,11.902,-2.441,1.099
0.948,0.061,0.259,11.353,-1.099,-1.099
0.945,0.024,0.256,9.521,-0.488,-2.014
0.946,-0.009,0.273,6.042,0.000,-1.343
0.955,-0.018,0.268,2.319,0.732,0.366
0.947,-0.023,0.227,1.160,2.014,2.075
0.947,-0.041,0.235,0.793,0.488,3.113
0.950,-0.030,0.264,-2.197,-1.099,5.371
0.953,-0.005,0.258,-4.150,1.099,7.446
0.963,0.041,0.240,-3.113,-0.549,7.751
0.955,0.030,0.227,-0.916,0.305,5.798
0.965,0.037,0.232,0.366,-0.793,4.395
0.969,0.034,0.246,0.183,0.305,3.662
0.967,0.047,0.219,-0.305,-0.610,2.869
0.967,0.038,0.224,-0.610,-0.305,1.709
0.969,0.018,0.257,-1.526,-2.197,0.549
0.973,0.010,0.265,-0.671,-1.709,-0.061

1.145,1.734,0.417,-15.259,-74.585,-63.721
1.127,1.938,0.481,10.986,-72.815,-106.750
1.074,1.987,0.622,39.917,-77.515,-157.410
1.017,1.838,0.849,59.204,-76.721,-211.853
0.918,1.549,1.234,55.359,-66.772,-259.460
0.833,1.129,1.703,33.508,-48.340,-295.288
0.744,0.518,2.022,6.958,-10.864,-318.176
0.703,-0.063,2.272,-17.578,32.043,-323.669
0.647,-0.230,2.338,-27.954,72.998,-311.340
0.533,-0.235,2.172,-25.391,115.112,-300.232
0.394,-0.455,1.985,-20.264,149.475,-300.232
0.253,-0.840,1.919,-18.433,175.232,-299.622
0.133,-1.267,1.905,-14.465,197.144,-289.917
0.037,-1.592,1.878,-12.695,222.290,-267.883
-0.012,-1.808,1.880,-18.555,249.390,-237.061
-0.135,-1.897,1.786,-22.217,279.297,-201.904
-0.231,-1.918,1.526,-20.508,314.941,-169.434
-0.344,-2.007,1.192,-13.184,340.454,-143.372
-0.450,-2.138,0.875,-2.197,354.675,-118.591
-0.537,-2.175,0.514,10.925,358.704,-90.088
-0.581,-2.200,0.146,31.982,352.966,-60.608
-0.554,-2.166,0.082,48.401,332.642,-31.860
-0.534,-2.082,0.108,67.322,313.049,-4.089
-0.516,-1.911,0.015,89.233,301.941,21.484
-0.509,-1.823,-0.098,113.159,288.818,43.518
-0.488,-1.681,-0.125,129.578,273.071,66.040
-0.498,-1.514,-0.215,149.658,263.977,90.454
-0.490,-1.436,-0.293,161.438,257.935,113.464
-0.503,-1.322,-0.424,168.640,254.028,138.123
-0.512,-1.180,-0.528,171.387,249.573,165.833
-0.525,-0.944,-0.533,173.279,241.882,191.772
-0.542,-0.662,-0.696,180.054,238.770,213.684
-0.580,-0.479,-0.949,186.829,235.229,228.394
-0.606,-0.408,-1.164,183.838,220.032,238.281
-0.616,-0.309,-1.291,175.476,199.951,249.817
-0.641,-0.101,-1.468,170.776,181.763,264.343
-0.620,0.130,-1.714,166.504,162.781,274.719
-0.610,0.251,-1.905,159.302,132.812,274.048
-0.578,0.257,-1.902,152.527,99.365,267.761
-0.526,0.468,-1.826,146.667,66.467,264.832
-0.468,0.777,-1.882,149.048,37.659,259.155
-0.433,0.888,-1.912,147.583,9.216,241.516
-0.449,0.869,-2.092,142.151,-14.038,219.666
-0.437,0.869,-2.322,136.414,-36.499,204.407
-0.396,1.031,-2.450,130.920,-69.336,196.106
-0.361,1.254,-2.493,124.451,-111.816,185.486
-0.274,1.432,-2.313,116.516,-163.269,165.466
-0.190,1.652,-2.082,111.084,-213.379,141.174
-0.148,1.752,-1.947,112.244,-254.272,108.643
-0.118,1.727,-1.688,111.023,-298.340,69.031
-0.069,1.853,-1.437,104.126,-333.923,36.316
0.012,1.912,-0.992,93.811,-363.708,4.578
0.124,1.771,-0.526,83.557,-384.338,-32.227
0.249,1.514,-0.145,74.829,-387.634,-66.528
0.319,1.279,0.119,75.500,-377.869,-92.041
0.353,1.100,0.170,77.209,-358.948,-110.046
0.429,0.935,0.376,73.853,-345.337,-123.474
0.532,0.776,0.933,79.895,-341.003,-132.935
0.683,0.720,1.257,88.989,-323.303,-137.573
0.809,0.810,1.382,91.980,-288.879,-138.977
0.918,0.865,1.536,91.492,-255.005,-147.522
0.926,0.670,1.508,91.431,-218.140,-164.368
0.880,0.410,1.281,89.355,-175.110,-180.908
0.862,0.136,1.111,83.313,-151.001,-192.139
0.850,-0.149,0.998,75.684,-134.888,-196.655
0.833,-0.481,0.966,61.523,-119.080,-192.017
0.840,-0.665,0.918,44.556,-103.455,-174.316
0.879,-0.823,0.926,39.246,-91.125,-151.917
0.942,-0.836,1.046,37.537,-80.505,-126.465
0.968,-0.700,1.013,38.635,-60.486,-99.976
0.960,-0.611,0.840,33.813,-34.485,-79.468
0.981,-0.531,0.763,21.912,-16.724,-63.232
0.982,-0.428,0.728,12.695,-4.395,-48.279
0.982,-0.295,0.563,6.592,7.812,-35.645
0.980,-0.235,0.461,0.549,15.686,-27.954
0.963,-0.191,0.359,-3.601,17.883,-23.315
0.963,-0.115,0.247,-5.310,16.113,-20.203
0.970,-0.016,0.213,-9.033,13.123,-18.921
0.974,-0.002,0.241,-10.498,10.132,-22.034
0.964,-0.046,0.238,-5.310,5.859,-27.405
0.964,-0.133,0.282,0.671,1.160,-31.677
0.968,-0.215,0.329,5.005,0.000,-32.837
0.978,-0.216,0.357,8.911,0.549,-30.579
0.978,-0.191,0.383,9.277,0.061,-27.344
0.977,-0.178,0.356,8.728,2.930,-24.536
0.957,-0.177,0.301,10.254,6.958,-21.362
0.943,-0.197,0.251,9.766,9.705,-17.883
0.945,-0.161,0.234,7.874,10.986,-12.878
0.950,-0.144,0.253,4.883,12.207,-8.850
0.950,-0.155,0.252,2.197,13.611,-6.531
0.938,-0.149,0.191,1.282,14.343,-4.028
0.934,-0.145,0.172,0.244,14.160,-2.563
0.943,-0.119,0.195,-2.014,12.756,-1.587
0.954,-0.080,0.208,-2.258,10.071,-0.854
0.958,-0.072,0.223,-1.221,8.057,-1.770
0.962,-0.065,0.228,-0.671,7.141,-2.136
0.952,-0.084,0.212,-0.549,10.620,-2.625
0.958,-0.081,0.222,0.061,11.169,-2.380
0.964,-0.092,0.218,0.366,9.827,-2.258
0.960,-0.090,0.209,-2.014,12.939,-1.526
0.954,-0.099,0.190,-4.578,14.465,-0.122
0.956,-0.082,0.162,-6.226,12.085,0.977
0.951,-0.077,0.145,-6.775,12.512,1.892
0.957,-0.059,0.135,-6.897,10.437,2.380
0.961,-0.058,0.137,-5.371,7.385,2.319
0.976,-0.027,0.175,-4.089,5.676,1.892
0.977,-0.000,0.171,-1.953,6.836,0.854
0.976,-0.021,0.164,-0.793,8.850,-1.465
0.978,-0.043,0.172,0.305,8.362,-2.258
0.974,-0.063,0.160,0.427,8.911,-2.380
0.972,-0.073,0.139,-0.549,8.728,-2.319
0.976,-0.087,0.149,-1.465,7.996,-2.075
0.980,-0.094,0.153,-1.526,7.507,-1.587
0.970,-0.103,0.127,-0.488,5.005,-1.221
0.967,-0.102,0.138,0.244,1.770,-0.793
0.964,-0.068,0.139,1.099,2.197,-0.061
0.964,-0.068,0.158,1.770,4.150,-0.305
0.970,-0.076,0.177,0.488,3.723,-0.854
0.972,-0.080,0.191,0.061,1.892,-1.038

1.182,1.157,0.648,-1.770,-72.449,-110.718
1.177,1.133,0.934,3.235,-71.228,-141.113
1.176,1.069,1.370,1.099,-66.284,-170.105
1.168,0.878,1.980,-14.709,-50.293,-195.068
1.157,0.554,2.563,-42.114,-17.822,-213.745
1.118,0.151,2.947,-59.692,33.203,-226.868
0.957,-0.255,2.900,-59.937,95.093,-235.168
0.667,-0.741,2.374,-47.363,158.813,-236.145
0.472,-1.255,1.922,-39.185,203.918,-227.905
0.356,-1.694,1.787,-34.912,228.577,-206.909
0.228,-1.849,1.588,-21.729,248.962,-174.744
0.096,-1.983,1.365,-7.019,271.057,-142.273
-0.010,-1.992,1.235,-2.075,286.011,-108.948
-0.147,-1.933,0.985,1.404,304.321,-75.012
-0.245,-1.957,0.755,11.963,320.374,-47.241
-0.357,-1.973,0.513,25.146,329.346,-21.240
-0.434,-1.955,0.306,38.269,329.041,5.127
-0.470,-1.809,0.083,53.040,324.402,31.860
-0.502,-1.612,-0.243,78.613,320.618,54.932
-0.508,-1.578,-0.498,100.220,308.777,70.923
-0.517,-1.574,-0.657,116.028,287.231,85.876
-0.493,-1.470,-0.791,131.226,262.268,104.675
-0.409,-1.309,-0.813,146.484,233.215,123.474
-0.378,-1.207,-0.790,164.001,206.360,138.245
-0.361,-1.152,-0.854,174.622,187.866,152.100
-0.360,-1.033,-0.938,175.537,171.692,170.959
-0.389,-0.936,-0.936,176.941,154.480,191.040
-0.419,-0.855,-0.949,176.819,143.005,211.121
-0.472,-0.657,-1.098,174.133,136.292,234.680
-0.522,-0.380,-1.278,169.739,123.596,255.432
-0.561,-0.060,-1.453,161.316,107.056,271.057
-0.604,0.238,-1.677,152.710,89.111,280.518
-0.555,0.599,-1.915,146.179,68.848,285.583
-0.460,1.004,-2.071,142.456,39.978,284.790
-0.365,1.418,-2.175,136.414,5.432,273.437
-0.278,1.759,-2.336,133.728,-29.602,248.108
-0.174,1.996,-2.372,131.653,-66.956,208.740
-0.086,2.028,-2.257,128.113,-111.938,159.729
-0.033,1.958,-2.143,123.352,-149.292,111.206
0.027,1.925,-1.907,114.441,-184.448,69.885
0.172,1.977,-1.498,96.863,-219.971,36.621
0.263,1.943,-1.181,82.947,-239.380,6.714
0.362,1.879,-0.995,71.472,-244.385,-18.799
0.437,1.857,-0.899,61.218,-247.009,-40.649
0.472,1.741,-0.844,49.011,-249.023,-63.721
0.492,1.471,-0.705,31.799,-254.578,-86.060
0.545,1.385,-0.368,10.071,-265.320,-97.534
0.596,1.465,-0.042,-0.977,-273.560,-102.722
0.674,1.496,0.278,-2.380,-272.278,-114.502
0.708,1.432,0.466,2.563,-260.132,-132.568
0.679,1.245,0.434,8.789,-245.483,-154.297
0.685,0.999,0.431,14.648,-232.422,-174.683
0.669,0.712,0.601,24.231,-226.440,-190.735
0.660,0.473,0.633,28.137,-216.125,-199.890
0.637,0.192,0.820,25.024,-210.876,-202.454
0.704,-0.083,1.053,19.470,-197.021,-198.853
0.783,-0.283,1.204,10.742,-174.622,-186.890
0.852,-0.359,1.263,1.770,-151.306,-170.227
0.912,-0.438,1.280,-2.258,-127.869,-156.067
0.947,-0.458,1.249,0.427,-103.882,-145.630
0.958,-0.531,1.209,6.470,-85.022,-138.428
0.929,-0.600,1.065,15.442,-61.462,-130.920
0.899,-0.693,0.868,25.513,-42.847,-121.887
0.905,-0.751,0.739,26.978,-29.480,-108.398
0.925,-0.732,0.728,13.855,-18.188,-92.468
0.928,-0.719,0.693,0.183,-7.996,-76.782
0.920,-0.682,0.551,-9.888,7.080,-60.364
0.919,-0.669,0.473,-19.470,16.052,-45.288
0.938,-0.597,0.451,-25.757,18.188,-31.555
0.934,-0.471,0.411,-24.292,21.912,-21.301
0.932,-0.434,0.307,-18.982,27.954,-16.785
0.920,-0.466,0.226,-12.146,26.367,-15.503
0.913,-0.464,0.168,-5.310,21.545,-11.658
0.919,-0.434,0.126,-0.366,19.836,-6.958
0.940,-0.352,0.161,2.991,17.822,-3.113
0.954,-0.233,0.194,6.409,12.817,-1.770
0.955,-0.153,0.141,8.118,9.827,-2.136
0.955,-0.149,0.137,5.981,11.169,-3.540
0.945,-0.189,0.171,1.282,8.850,-4.822
0.942,-0.198,0.165,-2.625,8.118,-3.418
0.944,-0.201,0.144,-7.080,11.169,-1.465
0.943,-0.214,0.146,-9.827,8.911,0.366
0.937,-0.242,0.135,-9.888,10.010,1.831
0.942,-0.210,0.117,-10.315,12.695,4.517
0.950,-0.166,0.127,-9.583,12.146,6.836
0.949,-0.149,0.115,-7.263,8.606,7.202
0.957,-0.112,0.099,-5.371,6.958,7.324
0.964,-0.074,0.113,-3.845,6.653,7.202
0.967,-0.071,0.113,-1.465,8.057,5.615
0.961,-0.115,0.088,0.122,9.460,4.028
0.960,-0.090,0.073,-0.366,6.470,4.761
0.965,-0.048,0.057,-1.099,3.357,5.676
0.969,-0.051,0.086,-3.052,3.601,4.944
0.974,-0.078,0.110,-5.615,4.456,4.150
0.975,-0.074,0.103,-6.287,3.479,4.456
0.979,-0.060,0.087,-5.310,0.549,3.967
0.981,-0.085,0.111,-4.944,0.122,2.441
0.978,-0.087,0.117,-4.395,-0.244,1.648
0.979,-0.080,0.117,-2.136,-2.625,1.282
0.989,-0.068,0.139,0.366,-2.441,0.183
0.995,-0.083,0.176,3.296,-1.282,-1.892
0.995,-0.083,0.193,4.028,-0.977,-3.113
0.988,-0.103,0.191,3.906,-0.305,-4.333
0.989,-0.128,0.193,1.892,2.197,-3.906
1.000,-0.110,0.199,-2.441,5.005,-2.502
1.001,-0.089,0.177,-3.967,7.141,-1.892
0.983,-0.119,0.131,-6.104,9.094,-2.136
0.982,-0.112,0.101,-7.202,9.094,-1.587
0.985,-0.102,0.120,-5.005,6.592,-1.587
0.980,-0.135,0.143,-2.625,4.578,-2.686
0.976,-0.144,0.111,0.000,3.967,-2.930
0.975,-0.161,0.123,2.747,3.479,-2.869
0.977,-0.180,0.146,2.502,2.869,-2.380
0.977,-0.177,0.134,1.526,3.296,-0.671
0.980,-0.154,0.126,0.061,1.465,1.831
0.980,-0.107,0.128,-0.854,0.061,3.540
0.979,-0.072,0.126,-0.977,-0.549,3.052
0.974,-0.110,0.159,1.099,-1.404,0.366
0.967,-0.143,0.155,1.892,-0.916,-0.916

0.926,1.081,-1.001,-105.591,-40.222,36.560
0.965,1.214,-0.780,-117.798,-71.655,21.484
1.003,1.365,-0.446,-113.281,-97.961,-2.502
1.014,1.485,-0.168,-85.266,-117.310,-35.461
1.014,1.587,-0.005,-50.232,-130.188,-77.209
0.973,1.648,-0.003,-19.043,-136.719,-120.544
0.920,1.489,0.195,1.282,-143.433,-165.344
0.870,1.235,0.493,10.986,-146.179,-204.956
0.792,1.059,0.729,-0.366,-138.550,-233.154
0.741,0.880,1.032,-24.170,-129.700,-252.258
0.684,0.629,1.427,-46.143,-117.188,-268.372
0.592,0.366,1.667,-58.228,-94.971,-282.227
0.533,0.107,1.830,-56.885,-71.106,-294.128
0.432,-0.244,1.966,-47.241,-50.293,-308.533
0.354,-0.671,2.098,-33.142,-25.330,-317.200
0.296,-1.020,2.239,-23.499,5.432,-313.171
0.222,-1.357,2.289,-18.005,40.405,-297.729
0.133,-1.701,2.232,-19.043,79.651,-273.499
0.039,-2.033,2.107,-22.034,120.300,-242.493
0.001,-2.373,2.111,-17.822,151.489,-203.369
-0.058,-2.236,1.914,-11.230,184.448,-151.917
-0.194,-2.256,1.512,17.456,210.693,-117.432
-0.279,-2.354,1.196,35.889,229.065,-87.402
-0.293,-2.352,0.984,54.321,233.582,-52.612
-0.310,-2.218,0.783,78.674,231.873,-16.968
-0.307,-2.007,0.584,98.694,230.347,14.832
-0.281,-1.901,0.478,117.310,224.915,40.405
-0.258,-1.828,0.438,132.202,218.323,63.660
-0.240,-1.713,0.366,147.095,211.121,89.111
-0.226,-1.526,0.221,160.767,210.815,116.699
-0.193,-1.381,0.121,167.114,210.266,141.418
-0.167,-1.141,0.015,169.434,210.083,165.039
-0.165,-0.973,-0.096,174.438,210.083,184.814
-0.161,-0.794,-0.158,176.208,205.688,200.989
-0.130,-0.537,-0.254,183.044,200.989,215.881
-0.102,-0.326,-0.312,194.092,195.435,224.854
-0.058,-0.098,-0.330,195.618,190.796,229.309
-0.012,0.175,-0.353,186.462,189.819,231.018
0.007,0.378,-0.475,170.898,194.702,227.844
-0.003,0.448,-0.714,151.001,201.172,222.351
-0.003,0.505,-0.973,131.042,201.355,218.628
0.008,0.541,-1.234,118.774,193.298,215.515
0.012,0.565,-1.506,109.558,178.711,210.815
0.006,0.572,-1.848,104.187,160.339,206.177
-0.005,0.661,-2.251,94.543,135.437,203.125
-0.013,0.853,-2.675,73.975,99.243,202.393
0.090,1.210,-2.849,44.128,54.504,202.637
0.288,1.668,-2.586,17.700,-2.258,194.885
0.421,1.997,-2.229,9.705,-54.199,165.955
0.470,2.050,-2.058,22.217,-97.473,114.685
0.455,1.748,-2.173,47.546,-124.939,55.298
0.411,1.381,-2.180,64.148,-159.973,9.766
0.402,1.163,-1.941,66.406,-201.355,-13.428
0.405,0.943,-1.615,63.782,-231.567,-28.625
0.466,0.826,-1.204,57.129,-253.601,-35.767
0.549,0.877,-0.740,50.110,-268.555,-36.560
0.612,0.887,-0.474,47.363,-270.630,-40.283
0.661,0.807,-0.381,47.302,-262.085,-48.401
0.677,0.747,-0.354,46.692,-254.517,-54.016
0.714,0.845,-0.282,38.452,-252.014,-57.312
0.734,0.819,-0.022,30.579,-256.287,-66.711
0.750,0.687,0.122,28.320,-253.052,-80.017
0.750,0.477,0.171,29.175,-244.385,-90.698
0.730,0.286,0.228,26.062,-235.718,-95.703
0.743,0.117,0.345,16.541,-230.774,-94.177
0.756,-0.018,0.520,3.540,-225.769,-88.196
0.823,-0.075,0.739,-6.836,-212.769,-78.796
0.891,-0.054,0.937,-12.024,-196.167,-68.237
0.949,-0.050,1.075,-13.489,-175.354,-60.913
0.995,-0.026,1.145,-11.108,-153.076,-56.519
1.004,0.043,1.104,-5.798,-131.653,-53.955
0.986,0.061,0.996,-0.061,-108.948,-54.260
0.958,-0.030,0.931,1.099,-90.942,-56.885
0.957,-0.126,0.934,-0.977,-80.078,-56.763
0.956,-0.199,0.934,-3.479,-67.688,-53.528
0.955,-0.273,0.917,-6.104,-50.537,-49.072
0.950,-0.361,0.855,-8.057,-36.133,-43.945
0.923,-0.409,0.740,-10.132,-25.696,-36.804
0.916,-0.392,0.626,-12.451,-19.409,-28.015
0.920,-0.371,0.652,-10.864,-16.357,-20.569
0.931,-0.346,0.622,-7.690,-8.667,-15.259
0.940,-0.234,0.631,-4.395,-7.446,-10.437
0.939,-0.215,0.603,0.977,-3.235,-9.888
0.936,-0.214,0.566,3.479,4.944,-10.193
0.936,-0.141,0.518,4.639,8.484,-8.728
0.916,-0.104,0.426,4.150,11.536,-8.728
0.920,-0.146,0.426,-2.319,16.052,-9.644
0.917,-0.152,0.409,-9.827,19.836,-7.874
0.908,-0.162,0.352,-13.184,23.254,-5.798
0.894,-0.207,0.315,-14.954,26.917,-5.127
0.904,-0.183,0.254,-14.282,23.376,-3.296
0.895,-0.175,0.177,-9.888,22.888,-2.747
0.894,-0.255,0.208,-7.141,18.311,-4.761
0.897,-0.259,0.249,-2.930,11.230,-3.418
0.895,-0.233,0.200,1.099,13.672,-0.671
0.898,-0.204,0.214,3.662,10.864,2.014
0.904,-0.170,0.248,6.348,8.240,4.211
0.902,-0.155,0.228,8.850,11.230,5.798
0.910,-0.131,0.193,10.376,9.766,6.592
0.914,-0.114,0.188,13.611,8.667,6.714
0.924,-0.116,0.237,13.245,7.019,6.165
0.938,-0.108,0.274,13.000,7.385,6.531
0.942,-0.073,0.248,11.292,11.047,8.118
0.930,-0.050,0.188,8.362,14.343,9.583
0.924,-0.044,0.123,3.540,14.221,10.498
0.940,-0.054,0.155,-0.183,11.780,11.597
0.945,-0.022,0.183,-2.808,10.803,12.939
0.953,0.005,0.161,-3.174,9.155,13.550
0.964,0.009,0.151,-3.296,10.437,12.817
0.960,0.017,0.121,-2.991,7.324,12.024
0.969,0.024,0.129,-2.930,6.409,11.230
0.977,0.018,0.183,-1.709,1.648,9.888
0.982,0.020,0.174,1.709,0.916,8.362
0.987,0.008,0.174,4.944,1.831,6.714
0.981,0.008,0.170,6.165,0.549,5.676
0.983,-0.002,0.182,5.859,1.648,4.944
0.986,0.005,0.172,5.371,-1.221,4.761
0.982,0.004,0.180,5.127,-0.305,4.578
0.977,0.024,0.161,4.700,-0.122,4.456

1.078,1.211,0.440,85.144,-69.763,-81.726
1.043,1.328,0.419,108.276,-73.853,-117.432
1.008,1.326,0.576,123.169,-78.857,-155.273
0.982,1.260,0.812,127.380,-81.177,-195.129
0.961,1.027,1.020,135.010,-73.303,-234.863
0.917,0.721,1.241,146.118,-60.242,-269.836
0.846,0.521,1.344,148.254,-36.865,-292.603
0.752,0.226,1.481,144.531,-11.963,-309.448
0.656,-0.057,1.681,134.033,13.489,-319.092
0.546,-0.327,1.758,120.239,48.706,-317.688
0.487,-0.573,1.798,101.563,89.783,-309.082
0.380,-0.897,1.812,79.041,130.127,-297.241
0.247,-1.210,1.612,66.467,170.593,-280.579
0.125,-1.443,1.266,59.387,206.299,-257.324
0.023,-1.575,1.021,56.763,226.501,-229.431
-0.073,-1.699,0.888,57.739,240.112,-201.172
-0.138,-1.787,0.708,64.209,251.343,-172.852
-0.209,-1.859,0.644,69.946,260.803,-145.386
-0.278,-1.933,0.524,74.524,270.996,-117.554
-0.351,-1.981,0.290,77.393,281.433,-88.135
-0.428,-2.028,0.125,71.594,286.743,-57.739
-0.466,-2.067,0.020,66.101,288.940,-26.733
-0.505,-2.006,-0.125,66.772,284.180,4.700
-0.547,-1.909,-0.373,71.167,280.945,34.302
-0.551,-1.911,-0.572,77.148,269.836,58.105
-0.538,-1.954,-0.650,83.557,248.413,82.458
-0.515,-2.036,-0.627,87.036,226.074,110.779
-0.476,-1.994,-0.608,95.642,211.487,145.325
-0.468,-1.766,-0.728,116.333,201.599,181.702
-0.466,-1.580,-0.806,128.967,188.660,213.196
-0.459,-1.472,-0.839,138.367,169.006,239.197
-0.485,-1.344,-0.898,147.705,154.785,266.785
-0.522,-1.198,-0.946,151.367,143.738,296.753
-0.585,-1.042,-1.008,152.039,129.578,326.111
-0.649,-0.772,-1.086,144.592,115.540,355.957
-0.674,-0.419,-1.121,132.812,101.318,379.700
-0.655,-0.014,-1.130,121.399,87.891,394.104
-0.605,0.271,-1.146,113.831,76.721,395.996
-0.560,0.505,-1.290,107.666,63.232,389.160
-0.575,0.693,-1.679,106.812,49.866,377.808
-0.583,0.752,-2.091,100.891,30.518,363.647
-0.591,0.767,-2.291,86.975,-4.456,352.356
-0.589,0.975,-2.511,64.697,-45.776,350.586
-0.551,1.355,-2.483,33.691,-89.478,352.905
-0.427,1.693,-2.082,1.099,-141.663,345.825
-0.241,2.098,-1.583,-26.489,-186.890,325.378
-0.101,2.295,-1.237,-25.024,-209.167,282.043
0.075,2.390,-1.100,1.404,-217.957,219.910
0.171,2.488,-1.134,30.151,-223.450,155.090
0.189,2.383,-1.162,53.345,-236.267,93.323
0.197,2.022,-1.165,67.627,-253.845,33.203
0.199,1.660,-0.998,67.688,-275.208,-10.071
0.235,1.371,-0.695,65.308,-294.495,-36.987
0.263,1.204,-0.436,62.195,-304.504,-51.758
0.333,1.173,-0.161,53.711,-311.890,-58.411
0.446,1.238,0.293,44.678,-318.481,-61.829
0.554,1.394,0.684,39.185,-310.425,-67.871
0.612,1.534,0.788,45.349,-291.443,-82.397
0.644,1.497,0.756,58.105,-268.677,-107.727
0.658,1.462,0.776,61.707,-250.671,-134.460
0.662,1.309,0.918,66.345,-237.305,-162.231
0.654,0.986,1.030,74.890,-223.022,-192.688
0.656,0.665,0.999,83.496,-201.782,-215.454
0.653,0.287,0.978,86.487,-179.871,-230.042
0.668,-0.086,0.993,72.449,-159.119,-235.596
0.705,-0.440,1.059,52.063,-140.564,-228.333
0.775,-0.633,1.155,31.799,-121.155,-207.703
0.829,-0.687,1.205,17.334,-98.145,-180.237
0.834,-0.699,1.130,14.832,-76.477,-155.701
0.870,-0.705,0.997,18.921,-53.528,-135.620
0.886,-0.671,0.905,23.010,-39.551,-119.324
0.886,-0.556,0.763,22.583,-22.888,-104.370
0.869,-0.472,0.605,22.583,-15.137,-91.919
0.863,-0.451,0.581,21.484,-10.315,-83.923
0.890,-0.449,0.596,18.738,-7.690,-77.393
0.891,-0.460,0.608,16.235,-3.784,-71.045
0.870,-0.513,0.547,10.132,2.808,-63.782
0.880,-0.553,0.468,2.319,9.766,-53.833
0.893,-0.508,0.468,-5.493,9.583,-41.199
0.898,-0.503,0.465,-11.047,13.306,-29.724
0.900,-0.502,0.470,-15.564,14.282,-19.714
0.898,-0.486,0.439,-15.137,17.212,-9.644
0.917,-0.453,0.437,-12.390,16.602,-1.831
0.931,-0.378,0.435,-7.751,16.174,4.700
0.930,-0.328,0.439,-0.305,16.296,8.484
0.933,-0.319,0.455,7.446,15.015,9.949
0.936,-0.294,0.466,12.268,18.311,12.390
0.939,-0.187,0.455,15.564,19.653,15.564
0.934,-0.151,0.437,15.076,24.414,15.503
0.931,-0.137,0.404,12.939,28.931,14.587
0.914,-0.094,0.292,10.620,32.532,14.648
0.919,-0.078,0.193,7.324,34.790,14.038
0.920,-0.082,0.152,1.770,31.494,13.062
0.919,-0.074,0.125,-1.160,27.466,12.329
0.909,-0.101,0.129,-2.258,22.339,11.169
0.916,-0.138,0.132,-1.465,15.991,10.620
0.924,-0.163,0.152,-0.183,13.489,11.597
0.933,-0.134,0.175,2.441,7.935,12.695
0.933,-0.128,0.215,5.737,7.446,13.000
0.934,-0.124,0.209,10.376,5.005,13.184
0.926,-0.123,0.183,12.207,7.446,14.282
0.930,-0.079,0.150,10.925,6.836,16.602
0.945,0.024,0.121,9.460,6.531,18.738
0.941,0.031,0.185,7.202,2.075,16.541
0.950,0.024,0.222,5.615,1.221,13.977
0.951,0.022,0.216,5.920,3.235,12.024
0.947,0.013,0.191,6.653,2.136,10.010
0.947,-0.013,0.170,7.874,0.793,7.324
0.952,-0.038,0.201,7.629,-1.099,5.432
0.959,-0.031,0.212,10.071,-2.380,4.761
0.955,-0.059,0.218,12.085,-1.099,4.211
0.964,-0.039,0.245,10.742,-2.808,5.432
0.971,-0.000,0.247,7.446,-0.183,7.141
0.964,0.012,0.230,5.615,1.038,6.897
0.953,-0.004,0.207,4.639,0.549,5.371
0.959,-0.023,0.254,2.869,-0.183,4.395
0.970,0.009,0.259,1.526,-0.427,4.333
0.971,0.022,0.244,0.977,1.038,3.174
0.961,-0.026,0.259,1.343,0.183,0.305

1.197,1.488,0.047,-13.794,-61.951,-34.424
1.191,1.618,0.096,4.822,-69.336,-68.420
1.155,1.570,0.149,22.217,-69.519,-104.797
1.108,1.451,0.217,36.682,-72.144,-139.099
1.067,1.485,0.272,47.607,-72.754,-168.518
1.011,1.662,0.384,54.321,-74.463,-199.829
0.936,1.631,0.567,66.162,-76.721,-240.540
0.813,1.433,0.768,79.346,-75.256,-284.973
0.658,1.150,1.047,85.693,-70.007,-324.768
0.515,0.788,1.426,93.872,-60.364,-356.567
0.375,0.384,1.817,92.896,-39.063,-377.075
0.276,-0.074,2.303,73.730,-7.446,-383.667
0.127,-0.555,2.596,43.762,38.452,-380.493
-0.016,-1.113,2.552,16.479,97.290,-370.850
-0.169,-1.608,2.355,2.380,148.010,-351.990
-0.360,-1.975,2.031,4.761,186.707,-322.327
-0.400,-2.260,1.869,16.724,213.684,-284.912
-0.443,-2.497,1.752,40.649,234.985,-247.009
-0.520,-2.528,1.469,58.105,258.057,-205.933
-0.602,-2.561,1.277,60.974,278.992,-163.513
-0.647,-2.507,1.159,52.917,292.969,-120.056
-0.704,-2.470,1.053,42.297,307.190,-78.369
-0.819,-2.342,0.854,39.917,318.787,-41.077
-0.916,-2.286,0.552,45.654,330.322,-11.475
-0.956,-2.283,0.359,51.941,327.454,13.428
-0.963,-2.291,0.208,61.646,320.129,39.612
-0.958,-2.215,0.033,76.050,313.049,69.031
-0.923,-2.087,-0.120,93.872,302.979,97.412
-0.850,-1.835,-0.295,115.906,290.405,123.169
-0.799,-1.617,-0.482,145.691,272.644,141.907
-0.747,-1.494,-0.636,175.171,253.479,156.982
-0.663,-1.299,-0.694,195.374,230.042,176.208
-0.619,-1.080,-0.786,212.280,209.351,196.167
-0.532,-0.996,-0.741,219.238,190.308,211.792
-0.501,-0.901,-0.656,223.206,172.302,228.271
-0.506,-0.675,-0.770,232.788,162.537,249.146
-0.515,-0.475,-0.832,227.600,153.137,268.311
-0.517,-0.324,-0.925,215.515,142.883,282.715
-0.517,-0.141,-1.035,209.290,132.385,295.532
-0.536,0.170,-1.231,197.876,121.704,306.519
-0.522,0.425,-1.407,179.993,107.666,309.631
-0.447,0.628,-1.456,169.556,88.928,305.359
-0.391,0.985,-1.554,163.818,72.327,301.514
-0.303,1.451,-1.728,159.485,53.528,289.917
-0.182,1.846,-1.824,145.874,26.550,263.062
-0.024,1.927,-1.789,120.728,2.869,220.337
0.074,1.715,-1.590,106.323,-17.456,170.837
0.144,1.536,-1.510,111.389,-32.898,128.906
0.164,1.270,-1.405,117.859,-46.753,93.140
0.211,1.020,-1.297,119.080,-60.242,66.467
0.237,0.818,-1.280,117.310,-68.115,53.101
0.238,0.572,-1.298,107.849,-74.768,48.096
0.243,0.381,-1.339,94.055,-81.482,53.223
0.244,0.336,-1.386,78.186,-91.919,68.298
0.234,0.569,-1.508,61.035,-104.797,87.219
0.281,1.011,-1.543,33.508,-122.925,101.074
0.347,1.286,-1.411,-0.183,-148.193,99.915
0.369,1.465,-1.343,-26.428,-174.622,88.684
0.439,1.535,-1.156,-41.016,-200.928,69.763
0.489,1.599,-0.784,-49.561,-225.037,45.410
0.537,1.660,-0.485,-52.124,-238.892,18.127
0.557,1.564,-0.409,-48.340,-241.028,-12.939
0.574,1.415,-0.381,-42.358,-240.173,-42.603
0.575,1.223,-0.336,-32.654,-240.112,-68.054
0.567,1.025,-0.325,-22.705,-241.028,-88.257
0.555,0.751,-0.337,-15.320,-245.300,-103.394
0.524,0.432,-0.276,-11.414,-257.751,-113.403
0.519,0.283,-0.263,-9.460,-269.348,-110.535
0.555,0.295,-0.021,-16.296,-281.006,-98.816
0.632,0.417,0.444,-26.245,-288.696,-87.036
0.717,0.499,0.775,-22.949,-282.837,-80.688
0.817,0.556,0.917,-18.127,-264.465,-80.811
0.874,0.561,1.004,-10.376,-242.004,-86.182
0.907,0.544,1.035,-1.648,-221.130,-94.849
0.894,0.575,1.010,10.071,-199.646,-103.760
0.873,0.408,0.867,32.715,-178.040,-118.530
0.855,0.130,0.803,50.354,-162.842,-132.324
0.847,-0.150,0.799,64.209,-151.367,-139.221
0.814,-0.442,0.707,79.895,-134.888,-137.939
0.834,-0.645,0.624,80.261,-123.230,-127.075
0.865,-0.754,0.695,63.416,-114.441,-106.750
0.900,-0.677,0.832,39.551,-101.563,-79.956
0.951,-0.510,0.982,13.367,-86.548,-55.664
0.972,-0.317,0.959,-2.930,-62.866,-38.635
0.977,-0.152,0.914,-11.536,-41.504,-30.823
0.954,-0.055,0.812,-14.709,-27.161,-29.236
0.931,-0.068,0.657,-10.925,-12.268,-32.471
0.929,-0.115,0.582,-7.935,-7.202,-36.133
0.932,-0.198,0.567,-1.892,-7.446,-38.269
0.943,-0.271,0.578,5.798,-3.540,-39.124
0.937,-0.372,0.560,13.550,-1.282,-38.025
0.934,-0.372,0.495,17.334,4.700,-32.654
0.928,-0.347,0.423,16.174,11.475,-25.574
0.930,-0.365,0.400,10.742,12.024,-19.104
0.943,-0.352,0.415,3.113,14.771,-10.559
0.965,-0.268,0.396,-4.517,19.714,-2.258
0.966,-0.198,0.328,-6.592,23.132,1.526
0.951,-0.200,0.285,-6.653,26.978,1.831
0.960,-0.162,0.280,-7.019,23.987,2.625
0.957,-0.110,0.243,-5.249,24.048,3.418
0.955,-0.117,0.209,-2.502,22.949,1.831
0.950,-0.137,0.222,-0.366,21.118,0.488
0.951,-0.108,0.197,0.854,21.179,1.282
0.951,-0.092,0.175,0.732,20.142,1.648
0.944,-0.120,0.174,0.122,19.165,0.916
0.936,-0.136,0.143,-0.122,18.005,1.770
0.946,-0.130,0.125,-2.502,17.944,3.845
0.941,-0.134,0.171,-5.493,12.817,5.371
0.940,-0.148,0.169,-4.883,13.977,6.409
0.937,-0.132,0.154,-2.197,13.367,7.935
0.949,-0.068,0.124,1.221,12.390,9.888
0.953,-0.027,0.153,2.563,9.277,9.583
0.954,-0.024,0.165,4.272,6.836,7.996
0.949,-0.038,0.161,6.409,6.531,6.470
0.935,-0.057,0.142,6.714,5.676,6.042
0.942,-0.014,0.063,4.700,6.104,7.080
0.944,-0.039,0.096,3.906,2.258,6.470
0.950,-0.078,0.168,2.197,-1.099,5.371
0.951,-0.061,0.155,3.296,-0.183,6.470

1.104,1.167,0.578,12.878,-101.746,-76.782
1.092,1.115,0.622,46.387,-94.727,-111.450
1.042,1.206,0.549,75.500,-87.769,-144.714
0.974,1.201,0.468,98.511,-80.933,-181.335
0.950,1.153,0.603,114.746,-83.008,-218.994
0.903,1.127,0.858,126.404,-79.773,-252.808
0.807,0.994,0.961,137.817,-67.078,-286.560
0.686,0.620,1.071,140.686,-46.936,-318.481
0.579,0.136,1.295,130.615,-25.635,-336.487
0.542,-0.125,1.544,107.788,0.244,-334.412
0.488,-0.147,1.841,86.121,31.860,-321.716
0.427,-0.397,2.146,70.313,70.801,-316.467
0.319,-0.673,2.272,54.077,118.896,-315.063
0.189,-0.986,2.302,46.387,170.166,-308.350
-0.019,-1.316,2.083,44.861,219.971,-297.607
-0.227,-1.721,1.704,41.931,263.489,-280.090
-0.308,-2.132,1.463,34.485,292.175,-249.207
-0.318,-2.279,1.305,33.630,308.716,-205.811
-0.370,-2.188,1.158,40.466,322.876,-157.532
-0.476,-2.127,0.952,46.692,335.815,-119.934
-0.534,-2.194,0.756,50.781,347.473,-90.149
-0.593,-2.246,0.707,53.406,352.661,-58.655
-0.668,-2.175,0.521,64.758,359.985,-23.315
-0.720,-2.131,0.344,74.707,362.366,10.193
-0.753,-2.227,0.281,72.266,362.488,41.321
-0.770,-2.112,0.215,68.970,362.061,77.881
-0.780,-1.945,0.064,75.989,364.746,111.328
-0.780,-1.973,-0.057,85.144,361.694,136.597
-0.831,-1.790,-0.257,93.628,361.206,166.992
-0.834,-1.578,-0.499,102.234,354.675,199.036
-0.809,-1.345,-0.573,109.863,336.853,223.083
-0.798,-1.074,-0.728,117.432,321.960,242.798
-0.804,-0.803,-0.936,121.155,309.814,257.263
-0.780,-0.611,-1.002,124.084,291.321,267.639
-0.749,-0.450,-1.077,122.742,271.912,275.818
-0.771,-0.385,-1.173,127.014,254.761,283.691
-0.773,-0.225,-1.287,122.620,239.685,296.021
-0.749,0.031,-1.449,114.197,224.121,308.899
-0.727,0.182,-1.560,97.595,208.679,313.354
-0.739,0.130,-1.611,76.721,192.261,309.998
-0.740,0.193,-1.780,59.937,181.213,309.692
-0.712,0.330,-1.995,53.284,166.077,310.364
-0.648,0.427,-2.063,50.476,139.587,306.702
-0.577,0.622,-2.047,49.866,109.253,299.316
-0.515,0.786,-2.128,57.434,80.566,279.053
-0.454,0.921,-2.241,72.083,52.673,250.305
-0.396,0.902,-2.258,84.473,22.278,214.722
-0.342,0.787,-2.238,97.229,-12.634,177.490
-0.280,0.687,-2.185,108.337,-49.072,147.827
-0.260,0.638,-2.142,117.493,-83.984,126.648
-0.258,0.603,-2.188,124.634,-118.286,108.826
-0.233,0.604,-2.288,127.686,-154.175,93.750
-0.224,0.610,-2.170,125.305,-197.632,83.191
-0.235,0.660,-1.964,112.366,-243.347,76.904
-0.257,0.749,-1.860,99.731,-281.982,71.228
-0.221,0.976,-1.518,87.708,-325.745,65.247
-0.119,1.310,-1.043,74.768,-368.713,55.786
0.021,1.466,-0.607,65.918,-391.724,32.104
0.096,1.396,-0.412,59.937,-388.611,-1.221
0.116,1.209,-0.521,66.162,-374.146,-34.546
0.119,0.993,-0.546,77.271,-372.803,-62.439
0.133,0.736,-0.296,84.167,-381.836,-84.167
0.178,0.558,-0.042,88.379,-390.991,-96.191
0.247,0.555,0.098,89.050,-387.024,-99.792
0.335,0.533,0.346,89.417,-385.315,-104.614
0.392,0.367,0.597,93.384,-377.747,-114.258
0.464,0.271,0.713,95.398,-357.300,-117.493
0.524,0.270,0.809,96.924,-334.412,-113.770
0.635,0.304,1.015,98.633,-315.430,-112.183
0.746,0.248,1.301,98.145,-292.358,-115.417
0.855,0.102,1.494,98.083,-260.132,-121.765
0.893,-0.027,1.496,101.135,-218.079,-125.793
0.901,-0.124,1.382,95.337,-174.988,-125.122
0.876,-0.286,1.283,81.360,-137.817,-119.690
0.860,-0.418,1.159,60.181,-105.530,-107.910
0.853,-0.534,1.029,43.274,-78.308,-91.736
0.865,-0.506,0.946,32.166,-60.120,-72.205
0.890,-0.360,0.839,29.663,-47.546,-55.054
0.901,-0.270,0.771,40.222,-39.368,-47.058
0.898,-0.397,0.817,51.575,-34.729,-47.546
0.913,-0.393,0.724,60.486,-25.024,-43.091
0.922,-0.304,0.697,62.378,-16.052,-34.180
0.946,-0.245,0.749,55.054,-9.705,-27.954
0.951,-0.219,0.769,46.570,2.563,-22.766
0.951,-0.153,0.701,34.790,16.968,-17.578
0.935,-0.127,0.581,25.696,28.992,-14.343
0.922,-0.133,0.424,20.508,38.086,-13.123
0.919,-0.144,0.345,16.052,38.452,-11.719
0.921,-0.146,0.260,11.414,37.354,-10.315
0.909,-0.177,0.178,11.780,31.006,-9.338
0.920,-0.203,0.131,12.695,26.855,-7.629
0.939,-0.151,0.140,15.076,18.433,-5.127
0.943,-0.083,0.183,18.616,8.667,-4.333
0.947,-0.094,0.225,19.836,7.080,-5.676
0.961,-0.136,0.304,15.625,4.822,-5.554
0.988,-0.080,0.423,8.057,5.676,-2.197
1.027,0.067,0.462,0.793,9.827,0.427
1.027,0.085,0.520,-0.427,15.137,-3.296
1.009,0.021,0.498,2.502,21.667,-10.376
0.975,-0.079,0.350,7.202,29.785,-15.625
0.944,-0.149,0.243,9.705,33.752,-16.418
0.929,-0.191,0.169,8.789,31.494,-13.977
0.945,-0.160,0.084,7.812,30.090,-10.132
0.939,-0.171,0.097,8.484,23.865,-7.996
0.942,-0.201,0.134,9.766,17.761,-6.653
0.929,-0.169,0.099,12.817,15.503,-3.357
0.924,-0.128,0.045,14.526,11.292,-1.038
0.934,-0.146,0.074,12.939,7.202,0.366
0.949,-0.122,0.104,9.277,1.526,2.747
0.945,-0.121,0.157,6.836,0.610,4.517
0.947,-0.101,0.191,4.517,-0.671,5.615
0.954,-0.035,0.186,1.953,0.610,7.324
0.972,0.032,0.154,0.549,1.099,6.775
0.974,-0.026,0.210,0.916,-1.587,2.808
0.974,-0.071,0.204,1.526,-1.404,0.183
0.970,-0.053,0.160,1.770,-0.793,1.404
0.982,-0.029,0.187,1.221,0.366,2.319
0.984,0.002,0.151,2.869,-2.625,1.587
0.982,-0.052,0.189,4.333,-4.089,-1.282

1.132,1.536,0.839,146.729,-143.005,-127.686
1.039,1.462,0.731,185.303,-125.977,-175.110
0.934,1.272,0.623,211.670,-109.558,-221.924
0.894,1.088,0.744,214.294,-101.990,-259.827
0.842,0.964,1.135,204.041,-91.675,-290.100
0.752,0.941,1.394,183.655,-66.101,-316.833
0.607,0.890,1.578,156.616,-32.043,-344.971
0.427,0.653,1.696,134.033,3.479,-376.282
0.214,0.151,1.583,120.850,44.128,-405.884
0.049,-0.327,1.439,105.164,83.252,-422.974
-0.039,-0.686,1.411,93.445,111.938,-423.767
-0.137,-1.026,1.427,102.112,135.681,-416.321
-0.347,-1.120,1.400,112.366,161.743,-396.484
-0.461,-1.507,1.336,126.099,190.063,-383.362
-0.540,-1.874,1.462,125.610,218.872,-358.582
-0.684,-2.288,1.356,107.117,256.409,-314.636
-0.773,-2.534,0.996,72.510,298.340,-258.728
-0.820,-2.572,0.750,50.720,319.397,-198.853
-0.844,-2.612,0.635,43.579,325.256,-145.203
-0.883,-2.507,0.451,43.640,331.604,-96.375
-0.939,-2.288,0.260,46.570,330.933,-51.758
-0.989,-2.287,0.116,53.406,327.942,-19.714
-1.041,-2.473,0.065,51.880,323.303,10.986
-1.076,-2.518,0.022,40.466,317.200,50.903
-1.082,-2.393,-0.084,34.973,313.904,94.666
-1.104,-2.427,-0.090,44.983,303.833,128.845
-1.091,-2.417,0.032,50.659,287.781,164.185
-1.086,-2.349,-0.008,64.941,283.752,204.224
-1.078,-2.206,-0.234,89.661,278.503,244.324
-1.052,-1.865,-0.461,102.234,266.174,285.706
-1.040,-1.593,-0.447,109.680,246.826,320.007
-0.964,-1.390,-0.418,112.854,230.103,346.191
-0.936,-1.221,-0.472,116.455,220.276,369.507
-0.892,-1.102,-0.587,114.014,209.595,389.771
-0.837,-1.023,-0.570,108.459,194.702,408.875
-0.808,-0.817,-0.525,98.572,183.716,430.969
-0.832,-0.528,-0.610,91.614,177.124,451.050
-0.811,-0.200,-0.720,87.280,175.293,463.013
-0.762,0.021,-0.859,87.708,173.096,463.013
-0.754,0.122,-1.026,85.754,162.903,453.247
-0.739,0.185,-1.226,85.876,150.513,442.749
-0.696,0.318,-1.290,77.576,131.592,436.279
-0.647,0.507,-1.351,65.308,111.755,432.861
-0.613,0.677,-1.501,60.120,93.689,423.279
-0.594,0.776,-1.706,51.758,75.134,408.875
-0.535,0.800,-1.872,36.316,51.575,394.714
-0.495,0.860,-1.934,22.217,22.888,385.315
-0.459,1.044,-1.923,8.789,-5.737,380.127
-0.378,1.264,-1.993,1.343,-33.813,369.263
-0.279,1.415,-1.952,-0.977,-64.392,347.534
-0.204,1.573,-1.818,8.240,-97.534,317.200
-0.080,1.728,-1.554,31.921,-128.357,277.771
0.024,1.847,-1.290,71.167,-151.855,225.220
0.098,1.699,-1.103,113.586,-166.687,161.011
0.136,1.451,-1.113,146.545,-176.941,102.051
0.105,1.295,-1.256,167.725,-187.683,62.195
0.120,1.359,-1.258,170.654,-206.055,37.415
0.152,1.251,-1.050,166.626,-230.530,13.977
0.204,0.942,-0.771,154.663,-245.178,-6.958
0.231,0.746,-0.590,135.315,-241.760,-11.780
0.315,0.942,-0.386,106.567,-232.300,-1.587
0.399,1.359,-0.180,72.754,-226.746,8.728
0.490,1.716,-0.128,54.016,-212.036,2.136
0.514,1.910,-0.200,43.884,-192.810,-22.156
0.526,2.011,-0.245,37.903,-187.134,-55.481
0.552,2.064,-0.102,38.025,-189.697,-93.933
0.533,1.954,0.043,50.354,-189.148,-137.451
0.525,1.728,0.029,67.749,-182.556,-184.570
0.477,1.408,-0.034,89.172,-175.110,-228.882
0.452,0.997,0.008,109.009,-177.124,-266.235
0.499,0.498,0.154,127.808,-176.514,-294.006
0.557,0.016,0.318,137.512,-166.931,-302.368
0.649,-0.222,0.453,139.954,-155.273,-286.316
0.727,-0.152,0.567,135.437,-138.794,-255.798
0.798,0.116,0.635,126.587,-120.911,-228.149
0.791,0.344,0.685,119.629,-105.225,-214.172
0.768,0.297,0.637,119.812,-89.233,-220.886
0.704,0.158,0.530,122.131,-72.937,-230.225
0.682,-0.244,0.487,123.840,-64.148,-236.389
0.683,-0.755,0.463,118.286,-57.068,-231.140
0.749,-1.063,0.472,105.347,-50.415,-205.750
0.811,-1.042,0.565,92.407,-43.640,-167.236
0.853,-0.899,0.635,77.515,-35.583,-132.263
0.892,-0.788,0.653,65.125,-27.283,-105.591
0.936,-0.693,0.675,53.162,-18.799,-84.412
0.952,-0.528,0.709,40.527,-8.789,-66.895
0.935,-0.403,0.661,34.180,3.601,-55.176
0.920,-0.399,0.544,28.809,15.381,-49.194
0.899,-0.526,0.470,21.240,18.799,-44.128
0.886,-0.598,0.403,11.841,21.118,-33.264
0.884,-0.618,0.328,1.099,26.123,-18.677
0.901,-0.567,0.248,-5.920,27.649,-5.920
0.903,-0.526,0.218,-3.662,23.926,2.380
0.904,-0.498,0.236,0.549,19.653,7.568
0.914,-0.406,0.187,11.719,16.602,12.573
0.929,-0.277,0.151,25.146,13.428,14.343
0.942,-0.195,0.165,33.325,9.094,11.292
0.934,-0.134,0.145,34.546,6.958,5.615
0.913,-0.137,0.104,34.607,4.639,0.549
0.925,-0.151,0.140,28.076,-1.587,-1.587
0.936,-0.214,0.182,18.066,-2.136,-1.221
0.946,-0.228,0.196,6.042,2.441,1.282
0.955,-0.223,0.220,-3.113,2.625,4.028
0.956,-0.192,0.230,-7.141,5.615,6.104
0.947,-0.197,0.188,-7.690,9.399,6.897
0.942,-0.217,0.145,-6.287,7.568,7.629
0.973,-0.184,0.111,-3.906,9.155,9.766
0.956,-0.214,0.048,2.258,6.165,10.193
0.944,-0.201,0.035,3.174,0.366,11.597
0.948,-0.142,0.046,2.808,-3.235,14.648
0.962,-0.078,0.052,2.930,-3.662,16.663
0.974,-0.076,0.099,2.014,-5.127,16.602
0.997,-0.028,0.139,2.563,-7.080,16.052
1.001,0.038,0.167,6.409,-9.155,13.855
1.002,0.035,0.190,11.047,-10.132,7.446
1.000,0.011,0.231,15.503,-9.155,1.831
0.993,-0.023,0.225,17.029,-7.812,-1.526
0.992,-0.065,0.218,15.808,-3.174,-2.380
0.987,-0.097,0.212,14.404,-4.150,-2.319

1.141,1.065,0.657,126.343,-85.083,-111.084
1.133,1.292,0.822,144.348,-82.336,-141.296
1.078,1.411,0.970,163.086,-74.036,-181.580
1.025,1.396,1.224,173.706,-60.852,-228.394
0.923,1.277,1.538,170.105,-38.940,-274.536
0.765,0.874,1.742,163.574,-5.493,-316.772
0.617,0.434,1.766,152.100,40.283,-345.825
0.482,0.099,1.666,127.991,88.379,-358.154
0.305,-0.195,1.497,98.633,131.348,-359.680
0.044,-0.619,1.397,71.777,164.795,-357.788
-0.060,-1.226,1.310,70.740,190.613,-360.779
-0.146,-1.330,1.382,75.134,210.449,-338.318
-0.251,-1.450,1.502,67.932,233.887,-307.922
-0.392,-1.737,1.551,57.495,267.212,-282.776
-0.559,-1.993,1.347,47.913,308.472,-253.296
-0.733,-2.263,1.025,40.222,345.825,-216.431
-0.859,-2.400,0.705,31.433,369.446,-170.349
-0.969,-2.691,0.417,36.011,383.118,-126.770
-1.068,-2.885,0.239,33.997,390.381,-78.125
-1.155,-2.979,0.052,24.048,393.066,-17.944
-1.148,-2.984,0.064,11.292,390.564,40.466
-1.168,-2.742,-0.002,10.437,387.146,94.727
-1.168,-2.664,-0.262,27.405,382.629,136.719
-1.186,-2.632,-0.288,34.302,368.347,173.584
-1.219,-2.387,-0.319,39.978,354.309,218.872
-1.221,-2.102,-0.348,56.091,345.398,260.681
-1.170,-1.811,-0.273,68.848,333.191,295.776
-1.172,-1.508,-0.191,83.801,324.097,325.562
-1.201,-1.356,-0.217,94.666,322.388,348.755
-1.298,-1.194,-0.414,99.487,330.200,373.291
-1.404,-1.029,-0.830,98.572,337.830,400.391
-1.470,-0.791,-1.174,90.576,332.825,425.232
-1.467,-0.388,-1.349,76.782,308.044,446.899
-1.404,-0.045,-1.480,58.289,285.889,458.618
-1.311,0.175,-1.556,41.321,262.939,459.106
-1.143,0.442,-1.694,34.058,237.976,452.271
-1.042,0.684,-1.869,45.898,210.388,435.608
-0.908,0.638,-1.930,53.467,179.565,402.954
-0.851,0.405,-2.018,62.561,151.062,365.845
-0.830,0.487,-2.198,73.730,120.483,342.407
-0.690,0.783,-2.160,73.486,79.590,328.003
-0.525,0.929,-2.002,78.857,37.781,304.321
-0.443,0.937,-2.003,92.590,5.066,271.973
-0.430,0.935,-2.211,113.647,-23.315,243.591
-0.440,0.880,-2.392,129.822,-60.425,220.032
-0.419,0.794,-2.371,139.709,-107.300,202.576
-0.357,0.957,-2.091,143.677,-159.729,194.885
-0.314,1.231,-1.831,149.719,-204.712,185.425
-0.276,1.358,-1.742,156.738,-236.450,161.133
-0.277,1.365,-1.697,159.668,-266.113,129.333
-0.247,1.390,-1.497,160.278,-302.490,102.112
-0.195,1.457,-1.149,162.598,-339.844,77.087
-0.152,1.498,-0.880,165.283,-367.615,47.363
-0.128,1.540,-0.771,169.739,-378.906,15.320
-0.038,1.650,-0.509,169.189,-386.658,-14.160
0.089,1.653,0.049,168.091,-397.949,-47.729
0.211,1.493,0.421,173.462,-387.390,-86.060
0.305,1.304,0.408,182.556,-356.323,-120.850
0.362,1.162,0.339,189.148,-328.857,-147.217
0.389,1.055,0.305,192.139,-312.988,-170.349
0.335,0.997,0.052,199.829,-297.302,-192.139
0.313,0.726,0.041,201.294,-292.053,-216.919
0.369,0.440,0.377,186.584,-297.180,-237.488
0.469,0.029,0.760,170.349,-292.114,-251.282
0.581,-0.302,1.002,159.668,-270.203,-253.601
0.684,-0.383,1.127,150.696,-240.295,-239.136
0.762,-0.274,1.269,143.494,-211.487,-217.712
0.750,-0.273,1.240,148.254,-180.542,-204.102
0.734,-0.335,1.033,150.024,-148.682,-195.618
0.734,-0.464,0.914,143.921,-127.747,-187.195
0.751,-0.646,0.968,129.028,-113.708,-175.049
0.806,-0.825,1.125,112.793,-98.145,-155.273
0.861,-0.837,1.215,87.891,-75.195,-127.563
0.934,-0.678,1.275,65.247,-47.791,-97.534
0.972,-0.600,1.349,50.415,-21.790,-79.346
0.970,-0.603,1.341,40.405,5.493,-69.031
0.944,-0.649,1.129,33.936,34.119,-59.570
0.937,-0.677,0.966,30.579,54.626,-48.096
0.919,-0.583,0.826,31.372,65.552,-34.851
0.882,-0.527,0.619,34.302,73.547,-24.841
0.859,-0.580,0.468,34.424,77.026,-18.188
0.849,-0.531,0.276,31.494,76.050,-7.812
0.852,-0.432,0.167,24.109,70.801,3.174
0.868,-0.369,0.197,14.343,61.646,11.597
0.923,-0.333,0.294,10.620,54.626,16.174
0.925,-0.283,0.302,13.794,53.589,19.531
0.917,-0.256,0.250,20.874,54.443,20.630
0.971,-0.163,0.332,26.001,51.270,20.020
0.977,-0.037,0.359,31.738,50.903,17.334
0.947,0.031,0.165,37.476,56.152,12.024
0.918,-0.029,-0.004,37.354,54.932,4.333
0.909,-0.068,-0.052,31.311,43.701,0.732
0.932,-0.088,-0.035,20.752,34.912,1.160
0.941,-0.130,0.049,11.475,26.489,1.526
0.936,-0.196,0.058,7.446,22.888,1.892
0.925,-0.221,0.016,7.263,21.057,4.272
0.916,-0.199,-0.008,5.432,16.968,8.179
0.918,-0.159,0.012,2.991,11.719,12.207
0.937,-0.099,0.094,1.587,6.470,14.221
0.950,-0.046,0.147,3.601,3.601,13.977
0.951,-0.026,0.153,7.263,2.319,10.986
0.947,-0.031,0.141,12.146,1.526,7.019
0.953,-0.069,0.170,14.954,-0.916,3.906
0.966,-0.048,0.178,13.489,-0.427,3.906
0.961,-0.052,0.177,13.916,0.488,3.906
0.958,-0.076,0.153,13.611,1.648,3.235
0.960,-0.027,0.112,11.414,2.991,4.272
0.961,-0.025,0.145,9.033,-0.122,3.906
0.966,-0.066,0.159,7.935,-1.221,2.747
0.965,-0.105,0.166,8.057,-1.038,2.808
0.972,-0.091,0.200,5.859,-1.160,5.127
0.979,-0.047,0.167,4.211,0.122,7.324
0.973,-0.047,0.163,3.235,-0.061,7.202
0.975,-0.049,0.184,3.052,-1.221,6.958
0.966,-0.061,0.161,3.723,-0.183,7.019
0.969,-0.061,0.173,4.211,-0.732,7.202
0.974,-0.023,0.160,4.883,-0.854,7.507
0.970,-0.049,0.154,4.639,-1.160,5.737
0.974,-0.066,0.172,6.104,-3.235,4.211

1.207,1.586,0.446,53.040,-100.891,-93.689
1.169,1.730,0.497,94.849,-105.164,-140.320
1.111,1.787,0.599,132.202,-107.788,-195.740
1.023,1.759,0.774,160.461,-108.765,-255.615
0.842,1.541,0.954,172.119,-101.074,-314.026
0.716,1.127,1.424,160.706,-85.999,-361.145
0.598,0.661,2.051,127.502,-57.251,-391.174
0.479,0.130,2.640,79.956,-4.761,-406.433
0.302,-0.497,2.964,33.203,65.125,-408.569
0.093,-1.160,2.968,-1.038,141.663,-395.813
-0.138,-1.712,2.602,-6.531,210.571,-371.216
-0.350,-1.993,2.022,11.169,263.489,-339.111
-0.471,-2.120,1.661,21.667,294.250,-294.312
-0.621,-2.239,1.305,34.851,313.965,-252.808
-0.665,-2.381,1.020,48.340,329.468,-212.402
-0.760,-2.455,0.831,58.716,337.463,-170.349
-0.812,-2.411,0.649,66.040,344.666,-126.465
-0.876,-2.480,0.406,75.867,350.769,-85.999
-0.928,-2.528,0.205,76.660,355.103,-43.762
-0.962,-2.472,0.079,70.313,354.675,2.197
-0.984,-2.356,-0.017,70.068,350.952,45.044
-1.012,-2.166,-0.256,81.543,345.093,84.900
-1.020,-2.027,-0.472,89.722,335.083,119.202
-0.997,-1.889,-0.503,91.125,315.430,148.315
-0.953,-1.705,-0.592,94.971,300.354,176.331
-0.913,-1.472,-0.785,109.558,282.593,199.341
-0.833,-1.268,-0.916,116.638,263.672,216.553
-0.764,-1.105,-0.954,118.591,237.671,228.760
-0.684,-0.962,-0.935,118.164,216.064,239.380
-0.650,-0.844,-0.881,122.925,197.998,248.108
-0.617,-0.854,-0.878,130.615,182.495,256.714
-0.617,-0.888,-0.898,138.672,174.133,270.935
-0.694,-0.867,-1.026,141.174,167.297,294.861
-0.722,-0.707,-1.167,143.066,160.400,323.914
-0.750,-0.591,-1.206,150.513,146.179,348.999
-0.794,-0.411,-1.267,150.085,130.005,370.178
-0.820,-0.167,-1.393,144.836,118.347,387.634
-0.836,0.098,-1.534,136.780,100.037,399.231
-0.823,0.425,-1.752,126.831,75.623,403.931
-0.786,0.666,-1.892,117.554,47.668,397.583
-0.731,0.788,-1.967,113.098,15.808,381.897
-0.671,0.915,-2.055,119.324,-18.616,363.342
-0.629,1.145,-2.127,129.700,-58.044,344.360
-0.567,1.273,-2.016,136.658,-101.746,320.679
-0.467,1.283,-1.696,140.686,-147.522,291.321
-0.391,1.464,-1.370,140.747,-184.204,264.954
-0.297,1.682,-1.059,142.334,-207.153,241.394
-0.182,1.795,-0.837,141.602,-221.313,210.388
-0.099,1.789,-0.805,138.916,-219.238,173.096
-0.053,1.653,-0.873,132.202,-217.529,136.230
-0.025,1.672,-0.999,122.070,-223.083,109.009
0.007,1.939,-0.971,106.812,-239.929,90.027
0.064,2.086,-0.731,89.417,-261.719,62.988
0.141,2.083,-0.415,83.862,-280.518,25.513
0.279,2.151,0.004,85.754,-289.673,-11.902
0.393,2.199,0.302,96.252,-285.889,-51.575
0.472,2.119,0.367,108.398,-265.686,-95.459
0.507,1.959,0.314,120.056,-242.126,-138.489
0.480,1.669,0.291,128.113,-223.511,-177.490
0.435,1.537,0.160,127.686,-208.679,-206.909
0.421,1.418,0.041,120.850,-199.341,-229.980
0.429,1.209,0.199,109.680,-201.172,-253.723
0.453,0.884,0.404,105.286,-200.684,-273.987
0.511,0.662,0.488,103.821,-189.331,-285.583
0.568,0.473,0.678,93.628,-176.636,-290.894
0.602,0.244,0.810,90.698,-161.499,-291.809
0.603,0.004,0.711,95.947,-138.855,-287.048
0.607,-0.230,0.656,99.792,-122.314,-276.672
0.647,-0.354,0.669,102.966,-113.098,-261.230
0.690,-0.519,0.728,104.004,-104.980,-245.911
0.708,-0.734,0.784,96.313,-92.285,-229.309
0.778,-0.944,0.896,73.608,-75.989,-204.712
0.842,-0.999,0.973,49.500,-59.265,-171.692
0.891,-0.976,0.996,27.832,-40.039,-138.428
0.913,-0.911,0.974,8.911,-20.264,-109.375
0.935,-0.820,0.920,-2.075,-2.869,-85.938
0.953,-0.753,0.870,-4.150,11.414,-69.458
0.935,-0.698,0.759,-2.075,24.170,-58.411
0.912,-0.685,0.577,2.258,33.936,-49.011
0.897,-0.718,0.407,2.258,39.429,-39.917
0.895,-0.736,0.349,0.610,37.659,-28.625
0.898,-0.668,0.293,0.122,35.767,-15.625
0.913,-0.585,0.252,-1.282,34.546,-5.127
0.920,-0.557,0.257,2.014,31.494,1.099
0.912,-0.518,0.190,4.150,30.701,7.996
0.902,-0.439,0.121,4.883,28.503,15.503
0.919,-0.328,0.100,3.845,23.987,21.851
0.942,-0.217,0.143,1.038,18.738,25.574
0.966,-0.107,0.181,-0.061,15.015,26.367
1.000,0.019,0.145,1.404,13.428,23.621
0.990,-0.022,0.188,1.160,10.681,15.564
0.981,-0.105,0.191,0.427,9.766,8.057
0.970,-0.129,0.153,1.953,11.108,5.493
0.967,-0.129,0.161,1.648,10.681,5.188
0.966,-0.168,0.177,-0.671,10.254,4.883
0.955,-0.183,0.139,-1.282,10.315,5.798
0.943,-0.178,0.128,-2.258,10.071,8.240
0.947,-0.149,0.126,-3.723,8.484,11.597
0.954,-0.129,0.129,-4.822,7.690,13.733
0.956,-0.067,0.127,-6.042,7.141,14.832
0.958,-0.027,0.147,-6.470,6.104,14.038
0.961,-0.017,0.158,-6.348,4.883,12.329
0.962,-0.007,0.171,-5.005,4.761,10.864
0.959,0.007,0.137,-2.075,5.493,9.155
0.959,0.026,0.073,-0.427,5.615,7.080
0.964,-0.008,0.109,-0.366,2.014,4.578
0.969,-0.038,0.155,-1.404,0.183,3.174
0.962,-0.048,0.132,0.366,0.549,3.296
0.956,-0.068,0.124,0.854,0.305,3.296
0.961,-0.048,0.123,-0.916,-0.610,4.639
0.966,-0.066,0.156,-3.052,-2.319,5.066
0.963,-0.072,0.162,-3.235,-1.526,5.798
0.968,-0.061,0.150,-1.465,-1.526,7.263
0.978,-0.042,0.137,0.488,-1.953,8.118
0.975,-0.017,0.149,1.953,-2.563,7.812
0.980,0.018,0.160,2.502,-2.014,7.141
0.982,0.030,0.159,3.357,-2.319,5.554
0.983,0.029,0.154,3.723,-1.282,3.906
0.988,0.032,0.168,3.906,-3.174,2.136

0.975,1.059,-0.461,-24.963,-81.482,-14.038
1.000,1.140,-0.230,-14.648,-105.225,-36.743
1.069,1.352,0.110,1.465,-121.094,-61.829
1.125,1.641,0.412,29.785,-129.150,-94.238
1.035,1.680,0.429,66.772,-126.709,-139.343
0.916,1.577,0.270,99.487,-118.835,-189.758
0.865,1.277,0.399,117.126,-120.178,-236.206
0.822,1.010,0.599,124.878,-119.995,-273.010
0.738,0.926,0.688,129.333,-111.816,-301.514
0.621,0.993,0.898,130.554,-104.065,-330.200
0.516,0.840,1.260,125.610,-94.666,-364.319
0.363,0.490,1.538,118.225,-71.167,-395.081
0.134,0.055,1.717,110.779,-37.476,-416.626
-0.041,-0.600,1.931,97.534,-3.174,-423.950
-0.068,-1.127,2.117,72.510,34.973,-412.109
-0.121,-1.352,2.165,47.302,78.369,-385.986
-0.293,-1.547,1.879,37.476,121.704,-361.450
-0.423,-1.952,1.516,47.791,155.823,-344.971
-0.426,-2.295,1.396,59.143,173.889,-311.401
-0.456,-2.412,1.187,80.261,187.805,-265.137
-0.510,-2.396,0.858,99.609,203.003,-216.248
-0.547,-2.428,0.657,104.675,211.548,-172.058
-0.564,-2.401,0.640,93.811,214.478,-127.563
-0.583,-2.252,0.620,81.909,219.727,-83.313
-0.610,-1.999,0.562,73.425,227.722,-46.265
-0.641,-1.945,0.526,71.960,232.666,-22.400
-0.664,-1.941,0.463,74.219,238.403,-2.625
-0.676,-1.951,0.357,76.477,243.225,19.043
-0.678,-2.055,0.221,80.750,245.422,42.664
-0.674,-2.143,0.104,80.505,245.667,71.045
-0.663,-2.093,0.006,75.073,245.911,106.750
-0.655,-2.018,-0.074,74.829,243.164,141.174
-0.645,-2.018,-0.132,75.195,241.333,174.438
-0.639,-1.835,-0.269,76.538,240.845,212.219
-0.630,-1.528,-0.428,88.867,236.572,244.812
-0.604,-1.341,-0.460,100.098,225.403,265.747
-0.581,-1.225,-0.495,108.582,216.492,282.715
-0.592,-0.995,-0.598,113.953,210.632,302.612
-0.571,-0.782,-0.715,120.972,204.529,319.336
-0.545,-0.640,-0.771,132.812,190.369,329.224
-0.521,-0.508,-0.763,139.526,176.514,336.975
-0.506,-0.320,-0.796,145.691,165.283,344.849
-0.476,-0.118,-0.797,148.254,152.954,349.548
-0.436,0.050,-0.819,145.752,142.700,349.854
-0.405,0.243,-0.886,140.198,136.658,349.304
-0.360,0.394,-0.979,128.174,130.981,345.093
-0.323,0.511,-1.095,118.896,123.718,336.853
-0.273,0.571,-1.268,109.802,113.647,326.111
-0.218,0.638,-1.437,101.685,99.121,314.392
-0.184,0.696,-1.567,93.872,79.102,301.636
-0.119,0.697,-1.619,93.872,51.758,287.048
-0.059,0.744,-1.506,95.520,23.987,273.926
-0.026,0.923,-1.451,104.431,-3.052,261.475
0.015,1.117,-1.432,113.342,-24.170,241.882
0.069,1.241,-1.354,108.398,-51.147,217.957
0.148,1.436,-1.403,93.811,-69.641,197.449
0.144,1.491,-1.537,87.341,-88.379,174.377
0.172,1.532,-1.605,76.599,-110.352,151.245
0.236,1.661,-1.524,67.383,-138.184,132.141
0.278,1.688,-1.352,60.669,-169.434,109.802
0.281,1.577,-1.225,57.739,-192.871,81.543
0.262,1.361,-1.164,64.453,-211.731,53.284
0.264,1.252,-1.091,70.129,-228.638,33.264
0.283,1.242,-0.890,67.810,-246.094,20.264
0.325,1.294,-0.638,62.195,-260.559,8.179
0.413,1.434,-0.365,54.077,-269.287,-2.747
0.481,1.503,-0.199,43.091,-269.348,-17.578
0.531,1.465,-0.073,34.912,-260.986,-37.170
0.566,1.384,0.012,28.625,-250.061,-58.044
0.599,1.360,0.033,23.010,-239.441,-76.416
0.634,1.326,0.102,21.057,-231.812,-94.727
0.664,1.216,0.235,21.790,-226.257,-115.601
0.693,1.047,0.332,27.832,-217.041,-136.597
0.692,0.846,0.314,39.551,-204.346,-155.273
0.685,0.675,0.266,45.471,-193.420,-168.884
0.672,0.529,0.285,43.701,-188.843,-177.307
0.690,0.352,0.454,36.255,-186.829,-180.176
0.732,0.203,0.724,27.222,-181.458,-176.086
0.779,0.179,0.845,16.785,-166.565,-166.504
0.835,0.000,0.932,10.803,-146.851,-161.316
0.856,-0.215,0.980,4.883,-128.113,-155.579
0.861,-0.386,0.904,-0.916,-106.384,-142.700
0.887,-0.449,0.869,-4.333,-90.271,-125.183
0.907,-0.452,0.906,-5.981,-79.224,-107.178
0.946,-0.442,0.928,-6.592,-67.383,-91.736
0.971,-0.378,0.895,-5.005,-53.894,-78.979
0.978,-0.274,0.832,-1.587,-41.809,-69.397
0.982,-0.187,0.793,-1.892,-33.081,-63.049
0.980,-0.177,0.754,1.709,-24.780,-60.913
0.965,-0.211,0.677,3.662,-16.418,-59.875
0.967,-0.270,0.663,2.563,-10.742,-56.641
0.965,-0.328,0.663,-2.502,-5.371,-49.805
0.974,-0.325,0.606,-8.789,2.808,-39.917
0.963,-0.292,0.513,-14.954,9.583,-29.968
0.966,-0.271,0.513,-21.729,12.634,-22.644
0.975,-0.188,0.496,-20.813,13.977,-15.930
0.979,-0.159,0.452,-13.000,16.418,-13.611
0.988,-0.085,0.398,-6.775,17.334,-13.977
0.975,-0.086,0.348,-0.732,17.883,-16.846
0.959,-0.092,0.332,2.563,17.578,-19.165
0.948,-0.108,0.310,7.019,17.517,-19.775
0.939,-0.135,0.275,9.521,17.822,-19.409
0.927,-0.158,0.261,8.972,18.433,-16.785
0.923,-0.175,0.248,7.019,18.372,-12.756
0.951,-0.153,0.216,4.395,19.409,-8.301
0.938,-0.069,0.168,4.944,18.494,-6.042
0.922,-0.062,0.151,2.136,16.235,-7.446
0.916,-0.067,0.141,0.061,14.282,-8.667
0.913,-0.093,0.127,0.977,11.719,-9.155
0.914,-0.121,0.150,2.197,8.545,-8.789
0.915,-0.151,0.195,3.845,5.981,-7.446
0.912,-0.156,0.215,5.188,5.676,-4.395
0.915,-0.148,0.190,4.944,6.104,-1.221
0.925,-0.123,0.159,3.052,6.409,2.197
0.945,-0.048,0.136,2.441,4.700,4.578
0.949,-0.023,0.210,3.723,1.343,3.845
0.956,-0.033,0.235,3.723,1.099,2.136
0.956,-0.029,0.229,4.700,3.906,1.770
0.952,-0.010,0.210,5.066,5.371,1.587

1.024,1.309,0.670,125.977,-145.203,-140.564
0.956,1.244,0.690,148.376,-134.155,-178.345
0.878,1.062,0.611,160.278,-120.605,-217.224
0.812,0.774,0.693,164.246,-113.159,-250.793
0.710,0.706,0.837,166.321,-106.995,-271.545
0.663,0.644,1.281,157.959,-97.656,-286.743
0.573,0.529,1.769,131.653,-76.782,-304.260
0.437,0.193,2.077,107.056,-37.109,-323.242
0.337,-0.251,2.289,81.970,8.606,-334.900
0.256,-0.562,2.448,57.434,55.725,-333.496
0.132,-0.812,2.400,37.354,106.567,-325.500
0.030,-1.064,2.267,24.658,154.297,-315.796
-0.069,-1.331,2.164,30.884,191.467,-307.129
-0.257,-1.570,1.833,55.908,223.877,-294.006
-0.387,-1.837,1.361,79.224,251.221,-271.179
-0.474,-1.901,1.124,81.909,266.479,-234.070
-0.493,-2.162,1.063,79.346,273.926,-199.158
-0.518,-2.133,1.008,72.815,285.400,-157.410
-0.561,-2.120,0.905,63.721,300.232,-114.868
-0.655,-2.174,0.761,52.002,314.331,-81.238
-0.701,-2.208,0.588,52.795,323.059,-50.598
-0.737,-2.130,0.366,65.918,325.073,-21.362
-0.756,-2.140,0.159,75.684,322.266,3.723
-0.756,-2.218,0.068,77.881,313.599,29.663
-0.739,-2.158,-0.008,76.355,305.420,62.622
-0.704,-1.969,-0.121,75.012,298.828,96.985
-0.678,-1.769,-0.214,76.294,290.161,125.488
-0.649,-1.694,-0.292,77.026,281.250,146.790
-0.618,-1.568,-0.435,83.130,273.376,168.030
-0.571,-1.412,-0.623,94.238,262.634,190.674
-0.555,-1.283,-0.711,106.873,247.986,210.449
-0.508,-1.157,-0.719,114.319,230.835,228.516
-0.481,-0.948,-0.735,121.521,216.675,246.033
-0.480,-0.715,-0.800,121.643,206.543,261.414
-0.459,-0.545,-0.834,112.671,196.350,271.790
-0.437,-0.429,-0.813,103.943,186.035,279.541
-0.416,-0.311,-0.818,95.093,179.504,286.438
-0.407,-0.234,-0.881,88.684,177.246,291.992
-0.401,-0.152,-1.038,85.327,175.842,296.326
-0.393,-0.026,-1.187,81.055,170.166,300.232
-0.371,0.060,-1.305,78.247,158.386,299.377
-0.359,0.116,-1.474,78.552,144.714,295.898
-0.342,0.202,-1.599,78.857,125.854,292.236
-0.315,0.312,-1.696,82.275,103.149,287.476
-0.293,0.486,-1.881,85.815,78.491,280.884
-0.251,0.632,-1.998,84.900,49.988,270.203
-0.202,0.791,-2.047,78.247,16.052,256.226
-0.119,1.064,-2.139,68.909,-13.062,241.699
-0.069,1.361,-2.265,60.913,-49.255,218.384
0.003,1.543,-2.258,50.171,-90.088,184.509
0.061,1.567,-2.182,47.668,-133.179,144.592
0.123,1.461,-1.920,49.988,-176.514,105.652
0.188,1.289,-1.590,62.073,-212.524,68.237
0.223,1.006,-1.348,81.360,-236.694,35.400
0.232,0.656,-1.256,96.313,-248.718,12.329
0.260,0.446,-1.164,100.708,-256.836,6.836
0.323,0.533,-0.895,97.717,-272.766,14.832
0.422,0.862,-0.629,84.229,-282.471,26.672
0.521,1.105,-0.346,65.063,-279.968,28.442
0.596,1.301,-0.228,46.387,-271.912,21.790
0.657,1.503,-0.250,29.724,-259.033,9.644
0.696,1.535,-0.172,16.785,-254.761,-11.169
0.724,1.404,-0.028,10.986,-255.371,-37.598
0.726,1.164,0.081,14.832,-253.174,-62.866
0.720,0.946,0.204,23.499,-248.901,-81.360
0.747,0.714,0.391,34.058,-244.080,-93.567
0.805,0.568,0.592,42.114,-236.267,-101.074
0.852,0.507,0.678,45.959,-222.290,-105.164
0.860,0.448,0.678,51.147,-204.041,-109.009
0.860,0.405,0.653,52.856,-187.500,-112.549
0.880,0.365,0.741,52.490,-175.659,-115.601
0.909,0.298,0.891,54.443,-164.978,-119.934
0.923,0.150,0.895,57.495,-146.118,-123.901
0.932,-0.027,1.003,50.842,-127.197,-123.352
0.949,-0.182,1.111,36.499,-107.056,-116.333
0.964,-0.359,1.124,20.264,-80.994,-105.774
0.985,-0.497,1.218,2.502,-57.495,-91.064
1.031,-0.485,1.193,-7.996,-33.386,-74.524
1.033,-0.471,1.083,-9.521,-9.888,-61.401
1.033,-0.507,0.985,-5.493,7.690,-53.955
1.000,-0.491,0.778,6.287,23.071,-46.997
0.976,-0.432,0.542,16.724,33.569,-40.833
0.950,-0.388,0.394,25.635,34.180,-35.706
0.906,-0.363,0.201,30.518,32.898,-31.250
0.896,-0.337,0.012,28.564,29.602,-25.146
0.922,-0.331,0.093,19.470,17.944,-17.883
0.962,-0.293,0.227,12.207,10.254,-10.742
0.966,-0.281,0.257,10.071,10.986,-6.531
0.957,-0.164,0.166,7.996,14.160,-3.113
0.959,-0.126,0.132,1.099,13.672,-2.625
0.958,-0.109,0.176,-4.517,10.925,-2.991
0.960,-0.073,0.157,-5.737,10.742,-2.869
0.945,-0.081,0.133,-4.883,9.888,-4.578
0.941,-0.116,0.105,-2.686,7.141,-6.531
0.957,-0.100,0.068,-1.038,3.052,-7.690
0.939,-0.129,0.137,2.502,-1.892,-10.193
0.936,-0.173,0.135,5.798,-3.235,-11.841
0.923,-0.198,0.112,7.568,-2.747,-10.925
0.916,-0.206,0.146,7.812,-3.723,-8.728
0.905,-0.221,0.150,6.775,-3.723,-5.737
0.903,-0.243,0.109,3.906,-2.319,-2.441
0.911,-0.248,0.094,-0.610,-2.380,1.465
0.923,-0.189,0.103,-2.136,-3.967,5.737
0.928,-0.168,0.140,0.610,-6.226,7.202
0.939,-0.178,0.191,3.540,-7.080,7.202
0.948,-0.151,0.209,6.042,-5.432,8.911
0.958,-0.091,0.214,6.348,-3.967,10.559
0.956,-0.066,0.185,5.371,-1.953,10.559
0.959,-0.059,0.163,4.761,-0.427,9.766
0.961,-0.051,0.175,4.028,-0.122,10.010
0.970,-0.024,0.182,3.113,0.916,11.108
0.974,-0.001,0.161,3.418,2.747,11.536
0.966,-0.002,0.131,3.418,3.235,10.864
0.972,-0.014,0.114,3.174,2.258,10.437
0.979,-0.004,0.137,4.395,1.404,10.071
0.978,-0.008,0.154,5.737,0.854,9.277
0.968,-0.000,0.107,5.615,2.014,8.667
0.981,0.040,0.100,4.578,0.244,8.606
0.982,0.026,0.156,5.371,-1.831,6.897

1.025,1.542,-0.463,-4.089,-81.604,-7.568
1.041,1.639,-0.225,8.545,-103.149,-43.579
1.044,1.644,0.021,29.297,-118.042,-83.923
1.035,1.547,0.198,57.434,-123.657,-124.634
1.000,1.416,0.317,86.792,-124.878,-164.978
0.899,1.383,0.302,114.990,-121.521,-203.125
0.801,1.334,0.307,131.958,-118.652,-242.432
0.713,1.097,0.461,146.851,-120.239,-284.119
0.640,0.931,0.819,156.494,-120.667,-319.885
0.528,0.819,1.178,156.006,-109.863,-347.961
0.417,0.603,1.532,143.494,-85.876,-373.840
0.317,0.282,1.941,124.939,-53.894,-395.325
0.206,-0.056,2.347,104.919,-12.573,-409.363
0.042,-0.520,2.474,82.336,42.358,-417.236
-0.116,-1.062,2.330,72.815,101.807,-416.870
-0.337,-1.459,1.961,73.669,152.344,-401.672
-0.438,-1.771,1.645,83.374,187.378,-373.779
-0.491,-2.115,1.540,93.140,209.351,-339.722
-0.569,-2.315,1.323,93.628,232.117,-299.011
-0.646,-2.422,1.060,97.290,254.028,-257.019
-0.691,-2.360,0.944,97.595,267.090,-212.036
-0.739,-2.241,0.873,97.717,278.137,-166.199
-0.804,-2.192,0.697,97.412,293.762,-129.822
-0.871,-2.220,0.451,102.905,306.641,-98.633
-0.917,-2.262,0.155,113.892,312.805,-64.697
-0.935,-2.203,-0.112,119.080,309.570,-27.832
-0.908,-2.112,-0.318,121.765,295.654,5.859
-0.892,-2.073,-0.380,120.483,275.818,35.217
-0.834,-2.063,-0.414,121.277,257.874,63.965
-0.779,-1.907,-0.498,124.695,243.408,95.703
-0.721,-1.737,-0.533,129.517,227.844,124.695
-0.686,-1.626,-0.580,136.658,212.646,149.658
-0.660,-1.608,-0.680,144.043,199.524,175.720
-0.637,-1.494,-0.734,143.860,185.669,208.313
-0.607,-1.281,-0.784,139.648,171.570,241.333
-0.588,-1.173,-0.773,131.836,157.288,270.752
-0.582,-1.068,-0.609,113.708,147.156,299.927
-0.591,-0.906,-0.544,113.892,144.165,327.576
-0.634,-0.776,-0.624,124.146,147.461,353.455
-0.688,-0.656,-0.789,121.399,152.039,377.258
-0.748,-0.482,-0.966,113.281,151.794,400.818
-0.751,-0.220,-1.104,99.731,145.874,421.082
-0.732,0.137,-1.274,93.079,136.047,434.204
-0.665,0.520,-1.469,87.341,121.338,435.913
-0.589,0.652,-1.631,82.581,99.792,421.875
-0.520,0.699,-1.653,73.792,73.547,401.489
-0.442,0.784,-1.717,76.477,48.279,383.301
-0.363,0.800,-1.715,90.698,21.057,362.183
-0.305,0.769,-1.577,101.624,-8.179,338.501
-0.246,0.792,-1.393,111.267,-34.546,317.871
-0.176,0.907,-1.227,121.582,-56.091,300.659
-0.102,0.972,-1.172,134.338,-70.313,282.227
-0.072,0.928,-1.046,137.695,-82.642,259.766
-0.075,0.928,-1.100,133.423,-89.600,244.446
-0.100,1.057,-1.351,125.061,-95.703,237.183
-0.020,1.277,-1.504,111.328,-111.755,232.056
-0.001,1.470,-1.505,94.910,-136.658,222.534
0.015,1.552,-1.391,78.735,-163.269,202.576
0.041,1.599,-1.118,67.810,-190.979,177.551
0.095,1.655,-0.785,59.570,-215.210,152.222
0.166,1.773,-0.570,56.458,-228.516,130.371
0.260,1.883,-0.427,59.814,-230.591,106.812
0.274,2.088,-0.564,62.866,-222.473,79.102
0.315,2.189,-0.599,66.833,-221.375,41.870
0.388,2.261,-0.348,63.721,-232.056,-1.343
0.447,2.250,-0.173,64.209,-237.122,-47.546
0.439,2.011,-0.148,71.838,-232.239,-96.252
0.401,1.620,-0.149,81.726,-226.135,-138.550
0.393,1.292,-0.102,87.524,-223.022,-167.236
0.445,1.057,0.145,94.788,-225.708,-185.608
0.526,0.879,0.360,110.107,-222.717,-197.083
0.535,0.787,0.314,117.920,-205.933,-206.604
0.569,0.638,0.293,118.408,-191.895,-214.783
0.618,0.504,0.451,119.507,-188.599,-218.323
0.664,0.465,0.607,119.202,-183.594,-216.431
0.678,0.448,0.618,117.249,-171.021,-214.294
0.697,0.397,0.628,115.784,-160.034,-214.966
0.688,0.226,0.703,114.075,-151.245,-217.590
0.726,0.088,0.804,106.018,-140.015,-216.309
0.745,-0.075,0.907,99.915,-126.099,-211.975
0.789,-0.306,0.876,97.595,-107.117,-206.360
0.818,-0.538,0.841,87.769,-89.111,-194.763
0.853,-0.690,0.870,72.266,-74.158,-175.232
0.889,-0.659,0.823,50.903,-57.556,-150.208
0.911,-0.591,0.776,29.541,-42.664,-126.953
0.920,-0.557,0.745,15.930,-31.677,-108.643
0.910,-0.534,0.763,6.226,-22.705,-93.445
0.938,-0.527,0.725,3.601,-12.573,-80.627
0.933,-0.507,0.672,3.052,-4.517,-70.190
0.943,-0.529,0.620,1.648,2.319,-60.852
0.935,-0.543,0.548,0.305,9.216,-51.147
0.927,-0.536,0.465,-1.892,14.587,-40.527
0.919,-0.486,0.399,-3.479,17.578,-29.175
0.915,-0.401,0.342,-5.127,18.677,-18.982
0.917,-0.336,0.302,-3.662,19.348,-12.085
0.906,-0.335,0.284,1.038,18.799,-7.629
0.926,-0.315,0.250,4.822,17.883,-3.174
0.930,-0.204,0.220,7.324,15.991,0.732
0.923,-0.120,0.196,7.080,13.367,1.831
0.925,-0.121,0.204,6.104,10.071,0.183
0.923,-0.141,0.239,5.798,7.141,-0.854
0.926,-0.153,0.240,6.042,6.714,0.366
0.924,-0.137,0.221,5.615,6.714,2.625
0.921,-0.099,0.220,3.723,5.371,4.089
0.905,-0.116,0.210,1.587,4.456,3.906
0.911,-0.134,0.223,-3.235,4.822,4.639
0.913,-0.145,0.243,-7.019,4.944,7.446
0.920,-0.150,0.233,-8.972,6.165,10.559
0.927,-0.148,0.237,-8.850,6.958,13.855
0.953,-0.095,0.249,-8.423,7.629,17.212
0.937,-0.004,0.210,-5.371,8.118,18.066
0.940,0.007,0.172,-0.488,7.080,14.465
0.931,-0.040,0.211,1.953,4.761,10.986
0.939,-0.019,0.210,4.944,4.028,10.559
0.938,-0.029,0.220,7.751,3.967,10.681
0.940,-0.013,0.218,7.263,4.333,11.841
0.939,0.032,0.172,4.700,5.249,13.550
0.946,0.033,0.181,1.587,4.211,13.123
0.954,0.053,0.237,1.221,2.075,12.451

1.028,1.551,-0.086,58.899,-75.439,-107.300
0.986,1.620,-0.044,75.562,-87.891,-142.090
0.925,1.555,0.075,96.252,-102.112,-183.228
0.904,1.444,0.300,121.765,-113.647,-227.234
0.833,1.252,0.494,153.259,-119.507,-272.095
0.703,1.177,0.520,182.739,-115.234,-309.875
0.609,1.088,0.721,199.402,-111.633,-345.825
0.458,0.888,0.977,204.102,-104.126,-380.859
0.279,0.688,1.141,202.332,-85.876,-412.292
0.073,0.441,1.318,203.735,-64.087,-438.965
-0.141,0.020,1.582,205.933,-37.537,-460.815
-0.303,-0.399,1.763,189.514,0.244,-471.069
-0.474,-1.142,2.073,168.945,38.818,-476.440
-0.601,-1.939,2.228,157.288,87.891,-462.463
-0.662,-2.403,2.125,140.259,143.738,-414.673
-0.677,-2.565,1.928,122.437,193.726,-351.562
-0.755,-2.428,1.704,106.934,231.506,-290.466
-0.891,-2.457,1.381,106.384,261.292,-245.544
-0.991,-2.533,1.008,115.601,283.875,-204.468
-1.039,-2.539,0.677,124.817,298.645,-157.776
-1.055,-2.299,0.489,124.146,304.932,-106.689
-1.067,-2.076,0.416,113.098,308.716,-63.538
-1.100,-1.936,0.311,105.225,313.049,-32.776
-1.136,-1.760,0.056,110.718,316.162,-7.507
-1.142,-1.754,-0.130,115.356,310.547,11.841
-1.152,-1.795,-0.271,115.601,300.964,30.884
-1.113,-1.801,-0.421,113.220,291.321,54.321
-1.054,-1.661,-0.588,116.394,277.954,79.651
-1.002,-1.588,-0.747,124.634,259.216,98.755
-0.914,-1.620,-0.777,130.249,236.450,114.136
-0.831,-1.503,-0.784,136.719,213.684,133.423
-0.775,-1.378,-0.829,140.381,194.458,152.954
-0.731,-1.267,-0.855,144.287,174.744,169.312
-0.667,-1.170,-0.838,149.963,155.457,187.927
-0.598,-0.980,-0.806,151.855,139.099,206.543
-0.553,-0.905,-0.774,152.466,126.465,222.412
-0.502,-0.930,-0.587,145.264,114.868,236.023
-0.461,-0.875,-0.518,145.447,110.168,255.127
-0.473,-0.830,-0.572,149.231,112.610,276.550
-0.500,-0.805,-0.587,145.020,115.051,299.744
-0.543,-0.682,-0.676,138.916,119.202,325.745
-0.589,-0.514,-0.775,128.174,124.023,351.013
-0.606,-0.349,-0.839,117.859,125.122,369.507
-0.598,-0.070,-1.052,121.704,123.108,383.728
-0.582,0.138,-1.240,120.911,114.380,390.320
-0.506,0.250,-1.353,109.009,97.534,385.925
-0.476,0.310,-1.460,102.661,78.369,377.625
-0.428,0.450,-1.508,95.398,56.335,372.681
-0.355,0.684,-1.482,85.205,31.250,366.272
-0.281,0.918,-1.424,85.327,7.690,351.624
-0.203,1.069,-1.435,94.421,-10.254,326.599
-0.115,1.105,-1.503,105.896,-26.733,293.518
-0.086,0.920,-1.505,118.713,-46.082,257.019
-0.108,0.684,-1.603,128.723,-64.026,229.797
-0.156,0.620,-1.793,141.785,-84.534,217.834
-0.208,0.650,-1.901,147.827,-115.356,214.478
-0.239,0.760,-1.874,137.695,-152.344,214.905
-0.221,0.913,-1.724,119.507,-189.880,216.553
-0.223,1.118,-1.473,102.356,-226.379,216.736
-0.162,1.469,-1.190,81.726,-257.019,213.562
-0.026,1.806,-0.841,58.289,-279.297,199.951
0.092,1.940,-0.561,49.622,-288.574,170.532
0.167,1.949,-0.373,55.786,-284.668,131.714
0.276,1.898,-0.321,60.059,-274.109,90.942
0.304,1.880,-0.382,66.406,-263.184,56.396
0.318,1.878,-0.464,56.946,-254.517,26.001
0.402,1.945,-0.376,32.715,-253.845,0.366
0.478,2.060,-0.160,14.832,-257.812,-24.536
0.518,2.044,0.075,4.944,-256.226,-57.190
0.543,1.844,0.261,3.723,-247.559,-95.520
0.565,1.582,0.366,13.550,-233.887,-129.272
0.587,1.354,0.395,29.541,-218.872,-155.090
0.584,1.140,0.353,36.682,-205.322,-174.561
0.580,0.964,0.350,35.828,-194.946,-189.514
0.625,0.755,0.495,36.377,-189.819,-199.768
0.627,0.586,0.616,41.931,-182.434,-204.590
0.639,0.422,0.627,45.593,-168.518,-205.383
0.672,0.274,0.785,41.504,-158.203,-203.308
0.712,0.109,0.973,38.696,-146.484,-198.547
0.750,-0.018,1.023,28.625,-124.939,-189.697
0.797,-0.159,1.085,14.648,-104.126,-180.054
0.828,-0.334,1.105,5.737,-84.534,-171.265
0.858,-0.507,1.016,1.526,-63.721,-159.668
0.876,-0.613,0.917,0.061,-47.974,-144.470
0.906,-0.635,0.838,3.784,-39.368,-128.601
0.928,-0.613,0.780,11.719,-32.654,-113.892
0.930,-0.588,0.671,20.996,-25.085,-101.990
0.929,-0.580,0.544,25.574,-18.555,-92.041
0.937,-0.526,0.502,27.100,-16.541,-81.421
0.944,-0.499,0.524,26.794,-15.625,-70.862
0.946,-0.522,0.504,22.522,-10.315,-60.669
0.949,-0.517,0.459,12.390,-2.319,-47.668
0.958,-0.445,0.416,0.916,4.578,-32.227
0.965,-0.346,0.366,-7.935,8.972,-19.653
0.960,-0.303,0.344,-11.963,11.230,-12.573
0.971,-0.273,0.300,-10.559,12.085,-8.362
0.966,-0.249,0.246,-4.883,11.841,-5.859
0.964,-0.271,0.215,2.075,9.033,-5.127
0.965,-0.268,0.191,10.559,5.432,-3.479
0.967,-0.255,0.196,15.564,1.465,-1.709
0.960,-0.182,0.161,16.907,-0.244,1.160
0.958,-0.146,0.159,17.395,-2.197,2.563
0.972,-0.092,0.203,11.841,-4.089,4.089
0.975,-0.042,0.226,3.418,-4.089,5.737
0.984,-0.026,0.249,-5.676,-2.075,5.737
0.985,-0.036,0.280,-12.390,-0.305,4.578
0.988,-0.045,0.297,-13.428,2.136,3.235
0.972,-0.079,0.255,-11.414,5.737,2.014
0.964,-0.108,0.216,-8.545,7.263,0.977
0.950,-0.099,0.182,-5.005,6.531,1.343
0.945,-0.083,0.164,-0.732,5.432,1.953
0.950,-0.118,0.201,4.028,3.479,1.648
0.955,-0.101,0.196,7.507,3.601,2.808
0.971,-0.014,0.155,10.742,3.906,3.906
0.955,-0.027,0.156,12.390,3.357,1.709
0.956,-0.041,0.154,10.620,2.319,0.671
0.954,-0.026,0.150,8.972,2.319,1.587
0.953,-0.025,0.149,7.812,2.380,1.953
0.961,-0.031,0.149,7.263,1.892,2.014

1.066,1.327,0.825,152.344,-138.916,-103.271
1.042,1.433,0.917,175.354,-127.808,-140.503
0.950,1.400,0.931,195.801,-109.314,-185.669
0.816,1.161,0.659,209.167,-90.332,-233.643
0.703,1.034,0.732,223.572,-90.149,-271.179
0.626,0.872,0.913,244.019,-92.590,-307.434
0.537,0.858,1.169,249.756,-84.167,-339.539
0.415,0.636,1.501,245.361,-65.674,-372.986
0.296,0.168,1.866,226.990,-32.654,-399.048
0.195,-0.004,2.391,166.931,15.076,-398.437
0.042,-0.485,2.769,108.032,81.787,-399.048
-0.174,-1.157,2.691,74.036,163.879,-406.494
-0.419,-1.496,2.242,57.312,237.732,-388.184
-0.460,-1.687,1.696,64.148,284.790,-361.145
-0.782,-1.324,0.937,74.280,305.359,-329.712
-0.696,-1.521,0.923,101.624,294.739,-304.932
-0.814,-1.916,0.792,118.652,287.415,-292.542
-0.903,-2.121,0.463,117.859,298.706,-260.376
-0.880,-2.251,0.524,105.713,297.180,-217.163
-0.923,-2.285,0.576,103.577,298.706,-173.096
-0.980,-2.296,0.397,100.891,312.988,-132.629
-1.063,-2.282,0.168,99.060,323.547,-94.238
-1.107,-2.318,-0.016,94.910,325.378,-56.946
-1.118,-2.158,-0.176,91.370,321.350,-18.799
-1.112,-1.985,-0.343,89.966,313.232,13.245
-1.109,-1.934,-0.531,97.778,300.415,35.156
-1.082,-1.927,-0.752,108.643,282.227,57.068
-1.026,-1.922,-0.890,112.671,258.911,81.421
-0.952,-1.897,-0.922,107.788,234.436,108.765
-0.874,-1.745,-0.941,99.609,211.121,136.597
-0.782,-1.573,-0.966,98.999,189.209,161.377
-0.742,-1.437,-0.976,101.868,167.114,183.044
-0.651,-1.257,-0.981,103.760,146.423,204.224
-0.589,-1.040,-0.955,106.201,127.319,223.450
-0.494,-0.871,-0.869,97.534,111.938,237.732
-0.419,-0.824,-0.709,93.323,98.083,247.314
-0.366,-0.865,-0.589,90.881,93.262,257.690
-0.357,-0.776,-0.591,90.759,95.154,275.146
-0.337,-0.616,-0.598,88.806,97.778,294.434
-0.335,-0.517,-0.599,82.153,100.342,309.937
-0.344,-0.464,-0.683,73.730,106.201,322.815
-0.349,-0.410,-0.777,67.261,109.863,335.388
-0.345,-0.289,-0.938,59.998,110.474,349.426
-0.332,-0.157,-1.000,50.232,105.896,360.046
-0.316,-0.016,-1.042,40.283,99.792,365.173
-0.246,0.122,-1.128,43.335,93.994,362.976
-0.200,0.245,-1.217,51.331,85.083,354.004
-0.159,0.358,-1.316,60.364,72.510,340.332
-0.114,0.393,-1.386,74.036,55.054,322.449
-0.078,0.337,-1.324,85.083,33.813,304.138
-0.039,0.381,-1.310,94.849,14.465,292.114
-0.018,0.475,-1.313,107.056,-4.578,284.546
0.001,0.556,-1.288,113.403,-25.024,275.940
0.013,0.615,-1.271,111.267,-43.884,266.418
0.006,0.694,-1.408,105.042,-59.570,257.751
0.029,0.857,-1.584,94.299,-78.552,253.723
0.021,1.080,-1.753,78.430,-104.065,251.587
0.073,1.283,-1.741,52.734,-133.423,244.812
0.108,1.455,-1.644,31.494,-163.818,229.553
0.155,1.602,-1.358,20.630,-195.190,205.811
0.217,1.567,-1.013,28.992,-222.839,168.518
0.269,1.386,-0.834,52.429,-238.586,126.526
0.315,1.174,-0.659,79.224,-249.146,91.858
0.339,0.978,-0.464,106.567,-257.202,65.735
0.393,0.976,-0.281,120.483,-261.536,51.331
0.479,1.338,-0.184,115.967,-260.132,49.255
0.560,1.641,-0.096,106.140,-254.700,40.833
0.606,1.764,-0.046,88.745,-245.117,17.212
0.611,1.801,-0.104,67.932,-232.239,-12.329
0.591,1.653,-0.170,59.265,-224.060,-46.692
0.572,1.335,-0.018,53.833,-226.318,-80.750
0.573,1.026,0.179,49.500,-228.760,-104.675
0.586,0.743,0.216,56.885,-223.572,-119.019
0.591,0.557,0.195,66.833,-217.529,-125.488
0.623,0.498,0.368,70.007,-218.933,-127.014
0.704,0.531,0.657,70.129,-221.069,-127.319
0.755,0.712,0.865,69.641,-213.318,-127.258
0.825,0.866,1.018,74.585,-195.496,-131.653
0.843,0.853,1.108,83.740,-172.424,-148.010
0.786,0.626,1.079,78.796,-144.043,-168.457
0.779,0.272,1.020,59.937,-118.652,-182.739
0.798,-0.110,1.016,40.894,-99.182,-184.814
0.803,-0.440,1.017,23.682,-80.811,-173.035
0.841,-0.571,0.970,3.418,-61.096,-150.269
0.880,-0.608,0.977,-10.254,-46.448,-125.732
0.917,-0.626,0.946,-10.925,-34.302,-105.164
0.938,-0.554,0.855,-4.822,-22.461,-87.158
0.948,-0.417,0.708,6.653,-13.428,-72.937
0.942,-0.328,0.669,15.259,-8.789,-66.223
0.944,-0.278,0.644,22.827,-4.578,-62.439
0.933,-0.252,0.557,30.396,1.465,-58.594
0.931,-0.222,0.493,27.954,6.958,-53.345
0.953,-0.180,0.488,16.541,10.010,-46.814
0.959,-0.152,0.494,1.343,14.404,-40.894
0.953,-0.208,0.481,-12.329,19.958,-36.865
0.952,-0.273,0.458,-21.301,24.963,-32.410
0.955,-0.304,0.370,-23.376,29.785,-25.757
0.949,-0.301,0.279,-21.973,31.006,-18.494
0.947,-0.316,0.258,-18.188,27.893,-12.390
0.943,-0.296,0.234,-11.230,23.987,-6.348
0.943,-0.262,0.188,-4.456,21.057,-1.404
0.944,-0.209,0.170,0.793,15.930,2.869
0.942,-0.158,0.178,4.395,11.963,5.493
0.952,-0.094,0.171,7.080,9.033,7.019
0.950,-0.071,0.192,9.521,6.775,6.470
0.957,-0.060,0.210,4.822,6.470,5.981
0.956,-0.049,0.215,-2.319,7.935,6.897
0.965,0.001,0.236,-8.789,8.362,7.812
0.971,0.044,0.240,-10.620,9.888,6.897
0.964,0.008,0.246,-9.644,10.681,3.113
0.948,-0.027,0.195,-6.409,11.475,0.122
0.934,-0.076,0.168,-2.869,10.376,-1.343
0.933,-0.129,0.179,0.183,7.568,-0.854
0.941,-0.113,0.169,2.869,5.920,1.526
0.926,-0.112,0.159,7.751,4.578,3.662
0.920,-0.106,0.148,8.728,3.235,5.798
0.927,-0.047,0.172,7.629,1.709,9.583
0.946,0.012,0.187,8.301,0.671,11.902
0.939,0.048,0.174,10.681,0.488,11.475

0.941,1.332,0.450,107.971,-102.966,-182.007
0.885,1.178,0.573,120.178,-100.159,-223.206
0.807,0.981,0.552,132.507,-91.125,-261.658
0.621,0.857,0.484,146.484,-83.374,-293.640
0.562,0.771,0.654,157.959,-82.275,-322.632
0.419,0.517,0.732,163.391,-79.102,-355.225
0.247,0.260,0.834,173.279,-74.036,-380.859
0.116,-0.085,1.142,186.035,-69.946,-400.940
0.025,-0.480,1.632,186.279,-54.260,-409.912
-0.021,-1.042,2.182,163.269,-17.700,-405.029
-0.057,-1.649,2.433,129.883,43.579,-383.545
-0.142,-1.815,2.310,81.360,117.859,-340.576
-0.250,-2.040,2.137,48.950,177.429,-299.500
-0.349,-2.318,1.942,42.664,222.412,-264.099
-0.470,-2.455,1.440,52.246,260.559,-223.328
-0.604,-2.478,1.011,60.730,281.250,-176.208
-0.651,-2.492,0.866,54.321,285.645,-130.310
-0.651,-2.432,0.802,45.166,290.405,-85.999
-0.703,-2.351,0.672,43.884,299.866,-45.715
-0.736,-2.350,0.435,38.940,309.937,-11.841
-0.789,-2.248,0.229,34.424,313.232,21.362
-0.789,-2.108,0.037,38.330,308.350,52.185
-0.749,-1.942,-0.116,46.936,297.424,76.721
-0.713,-1.802,-0.275,53.711,284.607,96.069
-0.656,-1.684,-0.466,61.096,270.447,111.938
-0.589,-1.592,-0.586,70.435,251.282,125.793
-0.516,-1.493,-0.709,80.444,230.591,139.648
-0.448,-1.469,-0.734,91.187,206.970,152.527
-0.360,-1.378,-0.706,101.379,183.167,167.847
-0.316,-1.278,-0.662,113.770,162.598,184.570
-0.224,-1.205,-0.599,119.751,146.545,200.684
-0.162,-1.178,-0.593,118.408,139.221,217.712
-0.195,-1.078,-0.625,106.262,137.085,240.601
-0.237,-1.006,-0.610,95.154,133.179,262.817
-0.227,-0.920,-0.636,87.952,131.531,284.912
-0.250,-0.734,-0.669,81.238,130.493,307.800
-0.229,-0.521,-0.652,73.059,127.991,325.562
-0.207,-0.279,-0.677,69.946,126.282,335.632
-0.197,-0.095,-0.732,62.866,126.099,337.219
-0.183,0.012,-0.799,56.030,124.268,333.008
-0.174,0.132,-0.858,52.734,120.056,328.430
-0.137,0.328,-0.949,56.152,115.112,323.853
-0.091,0.489,-1.050,65.430,108.032,313.721
-0.055,0.561,-1.183,74.585,97.412,296.082
-0.013,0.601,-1.284,81.421,81.421,276.917
0.020,0.627,-1.312,89.783,59.692,258.545
0.085,0.648,-1.291,95.764,37.048,243.164
0.125,0.671,-1.301,99.487,16.785,227.478
0.110,0.771,-1.471,105.042,0.305,212.646
0.140,0.860,-1.601,103.760,-20.447,197.876
0.181,0.936,-1.556,88.928,-49.744,183.960
0.231,1.003,-1.435,68.970,-77.271,172.180
0.273,1.054,-1.308,58.289,-98.694,160.828
0.316,1.081,-1.191,54.993,-116.089,147.888
0.340,1.017,-1.107,56.519,-129.333,132.874
0.324,0.887,-1.080,60.120,-140.503,119.507
0.335,0.760,-1.020,65.430,-154.053,111.633
0.330,0.679,-0.929,72.205,-168.457,108.765
0.314,0.729,-0.899,75.195,-180.420,110.535
0.301,0.847,-0.797,70.068,-193.909,114.075
0.359,1.103,-0.555,50.354,-209.167,117.249
0.457,1.511,-0.250,23.499,-218.018,118.652
0.555,1.885,-0.108,4.272,-212.036,107.178
0.595,2.126,-0.115,-7.751,-197.144,78.796
0.650,1.962,-0.177,-9.766,-186.279,34.790
0.643,1.756,-0.190,0.854,-182.556,-2.563
0.605,1.561,-0.223,9.338,-179.138,-29.724
0.608,1.286,-0.189,12.390,-181.213,-55.847
0.618,1.052,0.062,23.865,-190.369,-74.951
0.708,0.891,0.334,35.583,-193.420,-85.815
0.772,0.900,0.459,50.354,-185.364,-91.797
0.830,1.042,0.453,60.364,-172.363,-97.595
0.855,1.182,0.491,64.636,-163.269,-110.107
0.847,1.107,0.529,67.871,-154.785,-130.920
0.834,0.957,0.522,72.571,-144.165,-151.245
0.846,0.799,0.580,75.439,-136.230,-165.527
0.838,0.625,0.689,75.195,-129.150,-175.781
0.841,0.425,0.747,75.806,-118.591,-181.946
0.852,0.231,0.805,71.472,-106.812,-183.105
0.859,0.073,0.794,64.453,-93.689,-179.749
0.891,-0.088,0.854,51.453,-81.482,-173.767
0.910,-0.217,0.896,43.335,-70.740,-166.138
0.925,-0.269,0.876,41.321,-55.603,-156.616
0.923,-0.423,0.793,42.664,-41.382,-149.658
0.928,-0.519,0.703,38.879,-29.541,-138.855
0.923,-0.525,0.585,31.860,-20.569,-122.803
0.928,-0.495,0.500,23.743,-14.954,-105.896
0.939,-0.438,0.505,13.123,-13.000,-90.637
0.960,-0.370,0.547,3.296,-10.925,-78.552
0.975,-0.320,0.536,-2.808,-4.761,-70.251
0.949,-0.294,0.487,-6.042,2.380,-65.247
0.928,-0.318,0.416,-11.108,8.545,-61.340
0.919,-0.357,0.356,-13.733,12.390,-56.702
0.914,-0.394,0.335,-14.709,13.977,-50.598
0.912,-0.384,0.300,-15.137,14.648,-43.518
0.926,-0.356,0.264,-12.451,15.259,-37.537
0.911,-0.374,0.242,-7.141,13.306,-33.936
0.909,-0.397,0.221,-2.991,11.169,-29.480
0.919,-0.372,0.201,2.991,8.850,-23.743
0.915,-0.349,0.183,7.629,6.470,-18.494
0.920,-0.321,0.201,8.179,3.906,-13.306
0.930,-0.298,0.248,7.996,2.197,-7.996
0.941,-0.235,0.271,6.836,2.869,-2.991
0.944,-0.187,0.278,4.700,4.456,-0.366
0.937,-0.165,0.270,1.160,6.653,1.587
0.928,-0.182,0.259,-1.343,8.545,2.686
0.925,-0.172,0.231,-2.808,10.559,4.639
0.933,-0.092,0.181,-4.700,11.841,6.653
0.928,-0.133,0.196,-4.517,10.498,4.822
0.928,-0.177,0.230,-4.517,8.606,3.784
0.923,-0.163,0.194,-1.160,9.583,6.042
0.918,-0.135,0.158,0.916,9.766,8.728
0.925,-0.117,0.151,1.648,8.545,10.864
0.941,-0.047,0.133,4.333,6.348,11.841
0.936,-0.036,0.164,9.583,3.906,9.949
0.931,-0.075,0.195,11.414,2.563,7.019
0.927,-0.076,0.172,10.742,3.723,7.202
0.929,-0.069,0.148,7.446,5.066,9.033
0.941,-0.061,0.162,2.869,4.150,10.925

0.967,1.126,0.738,106.140,-120.117,-165.283
0.896,1.066,0.741,121.765,-106.567,-199.219
0.859,1.011,0.888,131.714,-97.839,-234.253
0.741,1.007,1.140,127.808,-86.975,-267.395
0.680,0.758,1.400,122.620,-67.200,-302.612
0.555,0.335,1.629,109.863,-42.175,-332.153
0.477,-0.085,1.907,98.389,-16.357,-346.680
0.379,-0.384,2.016,86.792,18.066,-349.792
0.286,-0.469,1.912,69.519,60.181,-346.313
0.174,-0.500,1.861,57.861,93.079,-346.863
0.014,-0.776,1.777,67.444,120.605,-355.408
-0.082,-1.141,1.675,88.867,148.193,-359.009
-0.202,-1.379,1.592,103.149,172.729,-347.534
-0.304,-1.591,1.479,110.596,198.486,-325.684
-0.420,-1.849,1.242,112.671,225.708,-295.715
-0.496,-2.007,1.011,110.291,249.084,-257.812
-0.557,-2.057,0.872,99.060,264.893,-213.501
-0.561,-1.909,0.730,86.243,277.527,-171.692
-0.587,-1.796,0.660,79.102,286.926,-140.564
-0.694,-1.860,0.434,88.989,296.082,-121.765
-0.760,-1.951,0.218,89.966,301.270,-97.229
-0.760,-1.959,0.078,91.980,297.791,-66.406
-0.779,-1.805,-0.104,100.403,290.588,-33.386
-0.776,-1.770,-0.221,103.333,281.189,-7.263
-0.763,-1.756,-0.388,106.079,270.386,14.954
-0.732,-1.702,-0.533,109.558,257.629,39.124
-0.672,-1.594,-0.599,108.582,242.004,63.171
-0.618,-1.453,-0.683,110.962,226.257,84.778
-0.568,-1.372,-0.773,114.807,210.510,103.088
-0.529,-1.410,-0.810,119.019,192.993,121.216
-0.497,-1.315,-0.803,122.498,174.561,144.897
-0.456,-1.245,-0.835,125.244,159.546,169.556
-0.409,-0.988,-0.784,119.751,144.653,193.481
-0.364,-0.876,-0.750,115.906,133.057,208.618
-0.332,-0.903,-0.640,111.145,124.451,218.201
-0.330,-0.934,-0.575,107.056,122.314,233.215
-0.329,-0.871,-0.620,103.210,125.610,254.700
-0.349,-0.771,-0.724,101.746,129.272,276.611
-0.371,-0.651,-0.861,99.487,128.662,295.288
-0.374,-0.494,-0.997,100.037,122.742,309.692
-0.341,-0.270,-1.111,100.952,111.877,318.726
-0.280,-0.057,-1.180,99.304,97.717,318.420
-0.245,-0.000,-1.181,101.746,81.299,307.068
-0.213,0.004,-1.202,105.835,65.369,295.166
-0.164,0.115,-1.233,110.291,50.720,290.405
-0.123,0.328,-1.321,118.408,34.668,286.926
-0.076,0.535,-1.443,129.639,14.954,277.283
-0.046,0.618,-1.542,136.047,-9.888,259.644
-0.030,0.595,-1.653,132.690,-35.339,240.234
0.001,0.538,-1.767,125.366,-62.988,224.487
0.010,0.507,-1.776,115.601,-95.093,216.064
0.029,0.517,-1.687,99.915,-125.732,214.172
0.089,0.586,-1.492,83.618,-152.649,215.515
0.135,0.677,-1.274,77.148,-175.415,215.820
0.172,0.740,-1.065,79.773,-192.261,210.205
0.246,0.732,-0.851,85.876,-204.285,198.181
0.268,0.803,-0.675,86.548,-213.379,187.866
0.326,1.098,-0.480,74.341,-224.426,186.829
0.450,1.464,-0.248,60.974,-231.018,183.899
