aX,aY,aZ,gX,gY,gZ
0.332,0.155,-1.954,-158.936,-84.412,-57.861
0.450,0.208,-1.455,-165.161,-153.809,-61.401
0.533,0.162,-0.890,-150.879,-206.970,-71.167
0.416,-0.004,-0.701,-112.610,-234.253,-84.961
0.211,-0.382,-1.047,-74.829,-244.019,-101.929
-0.058,-0.970,-1.169,-56.885,-267.090,-106.384
-0.058,-1.626,-0.836,-46.875,-308.716,-83.984
0.048,-1.558,0.085,-22.644,-360.718,-28.320
0.110,-1.708,0.593,-1.831,-381.042,10.864
0.153,-1.800,0.824,-2.197,-361.084,44.312
0.114,-1.753,1.085,-15.503,-331.665,84.778
0.096,-1.385,1.288,-33.997,-303.406,118.164
0.129,-1.381,1.387,-47.729,-278.137,137.268
0.228,-0.788,1.816,-53.162,-254.578,176.086
0.265,-0.426,2.242,-29.236,-233.582,202.148
0.224,-0.567,1.704,-4.883,-183.899,190.613
0.257,-0.319,1.864,-4.883,-164.001,199.036
0.290,-0.478,2.265,-13.245,-147.583,200.256
0.233,-0.640,2.151,-28.503,-103.088,205.261
0.189,-0.762,1.910,-42.908,-57.922,219.666
0.043,-0.958,1.687,-50.598,-30.151,239.136
-0.075,-0.950,1.723,-54.382,-12.146,270.935
-0.122,-0.476,1.888,-52.063,6.470,308.899
-0.156,-0.054,1.879,-40.283,29.907,332.092
-0.130,0.367,1.912,-24.231,55.603,342.712
0.019,1.006,2.092,-15.991,79.285,346.069
0.245,1.688,2.144,-20.569,110.107,336.548
0.399,1.863,2.113,-30.701,150.757,302.734
0.450,1.685,2.040,-49.316,193.237,258.179
0.354,1.416,1.685,-79.468,246.277,224.976
0.245,1.073,1.351,-116.577,289.795,204.102
0.166,0.951,1.182,-149.292,319.824,197.632
0.083,0.865,0.830,-172.485,348.022,196.289
0.034,0.910,0.498,-181.274,364.746,195.068
0.024,1.066,0.277,-185.425,370.667,192.200
0.066,1.277,0.111,-187.866,369.812,182.922
0.130,1.523,0.090,-189.392,360.779,167.725
0.203,1.810,0.285,-197.083,349.792,147.522
0.206,2.063,0.353,-208.252,356.689,118.835
0.111,2.243,0.236,-212.341,374.573,74.219
-0.019,2.223,-0.245,-208.923,394.958,15.686
-0.157,1.829,-0.607,-199.829,395.630,-42.786
-0.219,1.517,-0.688,-185.974,370.605,-84.351
-0.234,1.335,-0.736,-170.837,343.750,-111.023
-0.200,1.269,-0.918,-167.175,318.542,-127.869
-0.141,1.310,-1.025,-175.354,287.476,-138.428
-0.104,1.366,-1.021,-185.242,251.953,-152.283
-0.039,1.473,-0.816,-195.801,219.788,-171.936
-0.021,1.551,-0.805,-203.674,200.378,-196.228
-0.113,1.519,-1.068,-198.486,192.993,-229.614
-0.204,1.272,-1.329,-202.637,179.749,-264.832
-0.207,0.981,-1.371,-225.403,155.823,-289.795
-0.201,0.700,-1.178,-248.108,117.615,-298.035
-0.145,0.298,-1.116,-249.390,85.815,-297.241
-0.149,0.130,-1.084,-225.647,55.359,-288.391
-0.125,-0.003,-1.219,-186.707,28.381,-286.194
-0.115,-0.086,-1.316,-156.189,6.348,-283.386
-0.126,-0.426,-1.320,-137.939,-17.151,-284.851
-0.084,-0.710,-1.284,-126.831,-37.659,-275.879
-0.016,-0.576,-1.056,-121.094,-58.350,-252.502
0.023,-0.618,-0.907,-117.554,-66.589,-238.525
0.135,-0.828,-0.772,-108.276,-72.205,-229.187
0.153,-0.926,-0.760,-89.294,-72.693,-214.294
0.165,-0.767,-0.887,-67.200,-74.097,-195.251
0.147,-0.798,-0.980,-59.326,-81.116,-184.692
0.215,-1.022,-1.108,-57.617,-91.003,-174.927
0.134,-1.034,-1.170,-53.467,-109.558,-152.100
0.150,-0.754,-1.090,-52.673,-132.019,-122.864
0.182,-0.662,-0.907,-52.185,-155.945,-110.962
0.169,-0.662,-0.838,-51.819,-168.396,-109.314
0.182,-0.558,-0.717,-49.500,-177.734,-107.178
0.180,-0.589,-0.753,-46.936,-180.237,-106.018
0.199,-0.729,-0.621,-44.556,-190.186,-106.384
0.220,-0.733,-0.543,-40.955,-197.327,-100.037
0.229,-0.818,-0.616,-33.691,-194.763,-94.421
0.147,-0.784,-0.974,-32.471,-196.655,-86.121
0.146,-1.141,-0.959,-34.546,-219.299,-82.581
0.125,-1.260,-0.839,-39.429,-240.967,-67.749
0.172,-1.199,-0.712,-38.818,-257.141,-40.649
0.182,-0.947,-0.525,-35.217,-272.766,-18.372
0.197,-1.034,-0.504,-29.358,-275.757,-10.498
0.204,-1.280,-0.476,-18.799,-281.372,-10.132
0.245,-1.349,-0.132,-12.756,-295.959,4.944
0.256,-1.107,0.052,2.197,-299.744,27.771
0.215,-1.126,0.053,23.926,-295.532,37.720
0.189,-1.639,-0.013,36.682,-291.992,39.490
0.187,-1.881,0.127,41.870,-296.631,64.941
0.217,-1.800,0.409,49.561,-298.828,106.262
0.244,-1.727,0.683,57.251,-289.734,138.184
0.256,-1.577,0.927,60.669,-268.982,163.208
0.216,-1.340,0.991,59.570,-241.638,187.988
0.177,-1.154,0.972,56.213,-216.431,209.412
0.150,-1.163,0.994,48.950,-194.763,227.417
0.140,-1.099,1.040,32.471,-174.500,250.610
0.168,-0.833,1.197,8.606,-156.433,278.198
0.289,-0.273,1.521,-19.043,-135.376,300.415
0.445,0.462,1.685,-50.232,-103.333,308.594
0.590,0.812,1.601,-70.007,-60.242,291.138
0.773,0.845,1.606,-77.332,-27.039,257.812
0.934,0.975,1.624,-71.899,-2.014,228.760
0.987,0.834,1.607,-59.509,25.818,194.031
0.934,0.329,1.376,-46.936,55.542,157.593
0.912,0.064,1.162,-42.297,80.383,142.883
0.925,0.157,1.054,-42.969,97.290,146.240
0.899,0.257,0.865,-45.288,114.319,147.095
0.874,0.326,0.677,-49.500,127.686,141.541
0.871,0.624,0.469,-59.082,137.024,136.780
0.859,0.932,0.221,-67.627,142.090,126.892
0.880,1.144,0.002,-70.435,138.855,105.103
0.881,1.293,-0.249,-69.519,127.441,75.867
0.859,1.162,-0.502,-66.040,110.107,42.175
0.854,0.875,-0.535,-59.448,83.923,13.855
0.879,0.617,-0.418,-48.462,51.636,-1.038
0.932,0.429,-0.241,-32.715,23.010,-7.141
0.971,0.279,-0.086,-16.846,5.188,-9.583
0.979,0.202,-0.064,-4.578,1.526,-8.606
0.968,0.193,-0.117,4.517,4.089,-6.042
0.957,0.236,-0.116,9.888,3.479,-3.296
0.956,0.287,-0.033,10.742,1.953,-1.404

0.008,1.917,1.126,-59.265,241.394,379.456
0.045,2.380,0.997,-77.148,277.893,354.492
0.032,2.563,0.682,-81.116,314.636,310.242
-0.027,2.516,0.216,-80.261,349.243,257.446
-0.092,2.596,-0.252,-77.454,362.183,208.191
-0.095,2.696,-0.584,-66.956,355.225,157.837
-0.064,2.648,-0.725,-45.044,332.275,102.173
-0.065,2.403,-0.664,-25.940,299.866,47.241
-0.076,2.133,-0.507,-16.663,274.780,3.052
-0.143,1.925,-0.521,-13.184,265.503,-29.724
-0.169,1.777,-0.577,-17.151,262.268,-55.847
-0.172,1.784,-0.873,-29.785,262.390,-76.172
-0.219,1.826,-1.326,-45.044,257.324,-97.168
-0.262,1.893,-1.748,-54.321,234.619,-120.605
-0.205,1.841,-1.725,-61.096,189.453,-145.996
-0.230,1.714,-1.262,-69.580,144.348,-169.250
-0.142,1.345,-0.532,-81.665,112.976,-186.096
0.018,1.433,-0.400,-113.281,111.694,-182.190
-0.026,1.651,-0.521,-143.250,123.352,-183.838
-0.075,1.566,-0.549,-157.043,124.878,-217.102
-0.060,1.557,-0.589,-181.152,123.535,-250.183
-0.082,1.236,-0.802,-211.548,122.253,-277.649
-0.272,0.714,-0.871,-235.901,111.389,-294.067
-0.237,0.528,-0.798,-241.943,88.013,-291.382
-0.196,0.250,-0.687,-234.619,63.171,-291.321
-0.148,-0.041,-0.594,-223.328,50.781,-291.809
-0.093,-0.106,-0.623,-214.783,49.988,-280.273
-0.067,-0.113,-0.768,-212.280,55.664,-263.306
-0.022,-0.239,-1.020,-211.304,53.284,-255.676
-0.010,-0.455,-1.143,-211.060,42.175,-253.723
0.001,-0.485,-1.078,-210.327,20.508,-246.521
0.056,-0.450,-1.084,-200.500,2.197,-234.741
0.095,-0.454,-1.193,-184.143,-12.878,-225.525
0.073,-0.468,-1.378,-173.096,-33.325,-215.881
0.048,-0.543,-1.532,-167.175,-62.927,-207.092
0.086,-0.598,-1.386,-162.659,-98.999,-198.181
0.061,-0.529,-0.994,-155.823,-130.676,-186.035
-0.010,-0.471,-1.018,-150.757,-137.939,-172.913
-0.044,-0.653,-0.934,-150.085,-151.062,-170.044
-0.020,-0.766,-0.745,-147.278,-164.429,-164.307
-0.075,-0.641,-0.767,-142.517,-172.546,-149.170
-0.047,-0.671,-0.810,-134.460,-178.711,-140.564
-0.019,-0.792,-0.670,-127.563,-194.336,-138.794
0.007,-0.874,-0.594,-120.605,-202.881,-134.033
-0.005,-0.942,-0.599,-107.788,-209.351,-126.953
-0.004,-1.160,-0.675,-100.891,-211.365,-118.286
-0.000,-1.233,-0.693,-102.417,-220.642,-100.220
-0.001,-1.250,-0.743,-108.521,-230.225,-75.684
0.042,-1.346,-0.518,-111.389,-249.390,-52.917
0.083,-1.370,-0.336,-107.849,-260.681,-27.283
0.108,-1.514,-0.216,-93.140,-263.977,-5.188
0.184,-1.710,-0.011,-67.139,-268.127,14.221
0.184,-1.830,0.100,-39.612,-262.512,40.161
0.209,-1.787,0.110,-21.057,-253.967,72.083
0.207,-1.750,0.132,-9.277,-247.559,101.501
0.217,-1.578,0.226,-4.211,-240.906,129.944
0.224,-1.393,0.264,-8.423,-231.262,156.677
0.241,-1.299,0.326,-15.442,-221.313,179.993
0.264,-1.164,0.531,-20.447,-217.102,204.407
0.333,-0.949,0.834,-16.846,-209.717,223.511
0.405,-0.858,1.021,-13.733,-189.270,233.459
0.456,-0.778,1.066,-12.207,-160.461,238.647
0.505,-0.515,1.092,-15.808,-132.690,245.544
0.561,-0.180,1.115,-22.339,-104.309,247.925
0.620,0.201,1.062,-26.611,-77.209,244.873
0.704,0.448,0.959,-23.743,-60.791,231.201
0.758,0.416,0.839,-15.503,-52.124,207.520
0.832,0.259,0.843,-5.737,-48.706,185.059
0.886,0.059,0.855,5.127,-43.640,170.471
0.935,-0.130,0.820,12.024,-31.250,162.048
0.928,-0.314,0.740,13.855,-14.282,160.522
0.902,-0.318,0.632,9.277,2.808,166.809
0.901,-0.056,0.597,3.174,15.747,176.758
0.921,0.351,0.594,-4.456,26.367,180.359
0.935,0.741,0.550,-5.981,36.804,171.448
0.961,0.953,0.465,-1.831,44.128,149.048
0.972,1.045,0.306,6.531,46.387,120.422
0.968,1.008,0.121,10.742,43.701,91.980
0.960,0.808,-0.014,12.024,32.471,65.125
0.968,0.660,-0.080,8.972,19.104,46.814
0.995,0.585,-0.077,4.944,7.996,36.011
1.040,0.460,0.163,4.944,-3.845,26.184
1.053,0.412,0.268,6.226,-4.883,18.860
1.038,0.354,0.105,9.888,4.456,14.465
1.017,0.252,0.010,13.794,6.165,10.986
1.042,0.293,0.083,16.113,1.343,13.123
1.036,0.436,0.176,15.259,-0.977,15.015
1.023,0.523,0.176,15.564,1.892,11.292
1.015,0.500,0.203,16.052,4.761,2.991
1.011,0.534,0.222,14.160,7.629,-3.113
0.999,0.520,0.136,12.634,12.451,-9.583
0.969,0.364,0.015,10.864,13.794,-18.311
0.957,0.226,-0.017,9.094,6.958,-22.644
0.973,0.158,0.056,6.897,0.732,-21.301
0.978,0.119,0.075,7.141,-0.732,-18.982
0.980,0.067,0.062,9.705,-1.221,-17.273
0.988,0.021,0.140,11.780,-3.540,-14.709
0.991,0.071,0.166,12.817,-2.991,-10.559
0.983,0.044,0.130,13.550,-0.732,-8.850
0.969,-0.006,0.111,11.536,0.549,-7.935
0.972,0.070,0.121,8.301,1.831,-3.601
0.979,0.178,0.147,4.700,3.479,-1.404
0.974,0.182,0.126,1.343,6.287,-3.052
0.975,0.189,0.103,-1.099,8.606,-5.859
0.973,0.177,0.096,0.793,6.470,-9.338
0.962,0.146,0.053,4.639,3.967,-12.695
0.958,0.051,0.050,8.667,-0.671,-15.808
0.977,0.008,0.082,11.536,-6.531,-15.930
0.980,0.005,0.129,11.841,-6.592,-13.611
0.986,-0.037,0.159,10.376,-5.005,-11.719
0.983,-0.054,0.165,6.836,-2.625,-8.606
0.976,0.039,0.144,2.808,-2.319,-4.089
0.975,0.078,0.153,0.671,-1.648,-3.052
0.972,0.057,0.140,-1.099,-0.427,-4.761
0.969,0.063,0.107,-1.038,0.793,-5.310
0.962,0.013,0.124,0.549,-0.366,-6.775
0.969,0.043,0.133,2.563,-0.061,-6.287
0.975,0.085,0.141,4.272,0.610,-5.676
0.982,0.073,0.167,6.165,-0.732,-7.324

0.675,-1.433,0.715,-37.964,-129.639,123.962
0.586,-1.472,0.827,-37.476,-115.540,161.560
0.502,-1.360,0.942,-34.485,-101.013,203.308
0.404,-1.150,1.062,-32.471,-86.426,245.850
0.280,-0.999,1.096,-31.067,-71.472,282.776
0.192,-0.770,1.279,-26.794,-54.138,316.772
0.084,-0.321,1.257,-19.775,-31.250,349.609
0.024,0.027,1.158,-11.414,-6.470,370.789
0.029,0.434,1.372,-2.563,5.981,380.859
0.145,0.962,1.532,5.371,24.353,384.460
0.282,1.318,1.773,15.076,47.852,371.460
0.385,1.387,1.936,24.841,80.872,341.614
0.375,1.494,1.719,18.555,125.427,313.599
0.343,1.457,1.268,-7.690,168.213,290.344
0.312,1.246,1.167,-41.199,192.078,268.372
0.269,1.314,1.157,-76.904,212.708,259.521
0.222,1.411,1.040,-111.023,242.432,252.930
0.110,1.336,0.868,-146.667,273.865,238.586
0.049,1.216,0.743,-173.950,302.002,221.985
-0.036,1.331,0.684,-177.307,323.303,208.313
-0.112,1.563,0.389,-166.199,349.792,191.284
-0.194,1.716,-0.073,-140.686,368.896,162.231
-0.175,1.951,-0.320,-108.765,362.671,127.441
-0.084,2.306,-0.274,-87.097,336.182,90.576
-0.012,2.488,-0.158,-74.097,317.505,44.983
-0.021,2.360,-0.135,-67.932,308.533,-7.385
-0.130,1.979,-0.200,-72.083,304.504,-55.237
-0.198,1.524,-0.305,-73.975,302.551,-90.820
-0.290,1.291,-0.711,-69.153,304.260,-108.154
-0.342,1.153,-1.512,-68.420,298.279,-115.051
-0.347,1.114,-2.030,-79.285,266.602,-112.732
-0.330,0.866,-1.698,-92.224,201.477,-107.971
-0.145,0.868,-1.195,-130.371,143.860,-82.031
0.083,1.418,-0.758,-166.443,111.938,-46.692
0.298,1.914,-0.601,-192.200,100.708,-52.063
0.210,1.965,-0.672,-222.046,110.291,-99.060
0.050,1.383,-0.306,-243.347,108.398,-160.522
0.001,1.123,-0.063,-253.845,106.262,-196.777
-0.042,1.237,-0.440,-252.869,120.056,-214.966
-0.106,1.103,-0.857,-249.451,118.042,-240.662
-0.151,0.692,-0.819,-244.568,90.088,-268.250
-0.083,0.567,-0.518,-240.845,58.655,-278.259
-0.064,0.566,-0.578,-241.394,49.133,-281.067
-0.052,0.419,-0.853,-246.033,51.514,-291.016
-0.023,0.329,-1.050,-256.775,41.321,-294.983
-0.085,-0.216,-0.908,-268.372,24.841,-301.453
-0.073,-0.788,-0.775,-262.939,6.714,-299.988
0.046,-1.017,-0.943,-241.028,4.578,-273.987
0.070,-1.080,-1.189,-209.473,-7.935,-244.324
0.186,-1.203,-1.287,-175.964,-29.480,-216.980
0.202,-1.289,-1.196,-144.775,-57.068,-192.810
0.245,-1.062,-1.235,-126.831,-71.106,-161.255
0.278,-0.747,-1.127,-118.958,-87.097,-133.240
0.260,-0.545,-1.022,-116.455,-100.464,-117.981
0.245,-0.425,-0.879,-120.911,-113.647,-109.314
0.234,-0.307,-0.788,-131.775,-119.141,-101.501
0.183,-0.308,-0.864,-139.343,-123.962,-98.389
0.156,-0.456,-1.044,-139.709,-130.249,-98.022
0.139,-0.805,-1.056,-137.512,-151.245,-96.008
0.167,-1.008,-1.051,-125.977,-178.406,-83.374
0.188,-0.989,-1.046,-110.229,-200.989,-62.256
0.203,-0.944,-0.918,-93.933,-221.802,-47.180
0.243,-1.058,-0.706,-77.148,-238.281,-39.490
0.269,-1.085,-0.640,-61.340,-241.821,-28.931
0.245,-1.147,-0.652,-41.809,-242.126,-17.029
0.236,-1.352,-0.637,-24.536,-245.300,-6.775
0.215,-1.453,-0.689,-17.700,-248.657,12.329
0.220,-1.339,-0.706,-20.752,-256.104,42.358
0.231,-1.171,-0.513,-22.583,-269.348,70.679
0.272,-1.112,-0.146,-15.869,-285.278,87.830
0.307,-0.957,0.109,0.671,-286.011,103.088
0.355,-0.914,0.221,24.719,-275.513,109.253
0.401,-0.730,0.374,42.297,-263.550,114.014
0.427,-0.576,0.468,50.781,-247.742,118.042
0.464,-0.498,0.474,59.998,-228.699,117.920
0.499,-0.503,0.399,62.561,-211.670,117.859
0.542,-0.630,0.386,58.716,-200.317,118.469
0.615,-0.797,0.571,52.307,-194.580,124.390
0.659,-0.928,0.691,42.419,-182.617,136.963
0.696,-0.946,0.739,31.799,-162.476,155.212
0.708,-0.713,0.888,14.526,-139.587,175.049
0.698,-0.413,0.925,-2.625,-113.525,190.247
0.701,-0.156,0.899,-9.521,-87.524,196.472
0.724,0.086,0.799,-10.132,-67.322,196.045
0.821,0.501,0.816,-4.639,-56.885,191.101
0.911,0.744,0.858,5.798,-50.293,173.401
0.954,0.639,0.842,20.630,-40.466,142.456
0.974,0.502,0.807,31.860,-30.579,116.028
1.001,0.491,0.700,38.086,-19.836,98.938
1.006,0.391,0.589,38.818,-11.414,83.740
1.023,0.195,0.596,35.217,-5.981,71.472
1.036,0.100,0.606,27.039,-0.549,67.200
1.034,0.217,0.550,17.456,9.949,68.298
1.015,0.365,0.419,5.859,20.569,66.528
0.995,0.404,0.318,-3.845,25.940,58.899
1.002,0.434,0.285,-10.986,25.940,50.903
1.009,0.406,0.266,-11.597,23.926,42.603
1.017,0.369,0.278,-8.301,20.935,34.363
1.025,0.340,0.274,-1.709,16.846,28.015
1.038,0.350,0.335,6.165,12.695,22.217
1.029,0.262,0.358,11.536,14.832,15.503
1.028,0.251,0.345,13.306,21.545,11.780
1.015,0.322,0.266,11.719,28.076,10.925
0.984,0.274,0.125,7.141,32.288,7.385
0.961,0.194,-0.001,-0.122,32.288,5.432
0.967,0.188,0.022,-6.409,26.611,7.935
0.993,0.158,0.099,-11.597,18.188,10.620
0.994,0.165,0.101,-14.832,15.015,12.268
0.998,0.205,0.102,-15.320,15.564,13.428
1.000,0.287,0.136,-12.268,17.273,11.841
0.993,0.364,0.152,-8.728,19.043,7.629
0.979,0.367,0.081,-4.333,21.851,0.732
0.972,0.347,0.024,-1.099,21.057,-5.798
0.973,0.286,0.001,1.099,16.785,-11.169
0.973,0.226,0.004,0.244,12.451,-14.404
0.975,0.105,0.028,-3.540,8.667,-15.747
0.981,0.068,0.036,-5.615,5.798,-13.489
0.979,0.019,0.070,-5.981,4.395,-10.010
0.987,0.031,0.096,-5.188,3.418,-5.920

0.897,-1.032,0.697,-121.216,57.861,156.006
0.812,-0.985,0.731,-118.774,75.317,191.406
0.723,-0.829,0.744,-110.107,91.614,227.173
0.606,-0.630,0.660,-95.459,104.675,257.324
0.488,-0.418,0.535,-79.712,118.103,283.875
0.397,-0.233,0.575,-65.735,128.784,305.176
0.318,0.039,0.686,-53.833,139.404,323.364
0.297,0.397,0.823,-38.391,151.062,335.815
0.248,0.669,0.840,-20.447,173.950,336.487
0.208,0.891,0.826,-10.620,200.134,330.444
0.119,1.022,0.752,-6.714,222.595,320.068
0.014,1.009,0.610,-8.240,250.793,306.702
-0.075,1.073,0.448,-9.827,271.912,295.471
-0.127,1.359,0.262,-10.498,292.725,286.865
-0.138,1.806,0.092,-9.277,310.913,271.179
-0.081,2.345,-0.085,-14.526,323.792,242.065
-0.039,2.793,-0.396,-21.545,331.360,195.007
-0.030,2.942,-0.656,-30.762,329.834,129.395
-0.023,2.688,-0.856,-40.710,320.312,56.091
-0.129,2.362,-1.108,-47.913,304.016,-5.310
-0.210,2.188,-1.268,-53.223,280.518,-49.011
-0.221,2.148,-1.455,-49.805,254.944,-85.693
-0.248,2.153,-1.714,-50.476,226.501,-121.338
-0.316,1.897,-1.827,-62.134,197.266,-158.997
-0.307,1.616,-1.595,-74.097,153.503,-191.650
-0.159,1.493,-1.165,-77.026,116.516,-215.271
-0.190,1.349,-0.889,-88.867,96.436,-234.253
-0.145,1.372,-0.617,-117.981,88.318,-242.981
-0.269,1.462,-0.587,-134.033,89.478,-253.784
-0.293,1.415,-0.613,-146.545,85.510,-274.231
-0.326,1.381,-0.731,-152.710,79.590,-297.791
-0.408,1.407,-0.686,-177.307,64.514,-319.031
-0.431,1.123,-0.593,-203.796,50.171,-343.018
-0.351,0.855,-0.484,-214.844,35.461,-355.347
-0.410,0.475,-0.478,-217.834,26.611,-370.667
-0.402,0.120,-0.705,-216.370,32.532,-384.705
-0.353,-0.229,-0.919,-221.313,38.086,-384.155
-0.353,-0.711,-1.049,-210.266,31.982,-384.949
-0.251,-1.104,-1.107,-197.754,19.836,-369.812
-0.142,-1.331,-1.209,-186.646,8.240,-338.379
-0.009,-1.507,-1.210,-179.749,-2.808,-302.368
0.069,-1.431,-1.180,-167.786,-21.606,-264.099
0.155,-1.158,-1.156,-152.588,-38.818,-223.633
0.182,-0.874,-1.084,-139.709,-60.181,-193.481
0.211,-0.607,-0.881,-138.428,-82.336,-174.622
0.228,-0.562,-0.633,-132.568,-96.619,-168.091
0.243,-0.598,-0.564,-120.117,-102.478,-165.466
0.185,-0.522,-0.719,-110.901,-93.689,-157.104
0.140,-0.588,-0.906,-104.492,-94.543,-153.320
0.130,-0.767,-0.959,-96.741,-106.689,-155.029
0.095,-0.951,-0.943,-94.604,-122.559,-149.109
0.102,-1.153,-0.952,-90.881,-139.282,-135.925
0.071,-1.257,-0.886,-93.506,-154.663,-118.164
0.097,-1.227,-0.916,-93.384,-161.621,-95.886
0.099,-1.314,-0.850,-94.482,-176.270,-76.843
0.064,-1.496,-0.867,-96.436,-191.040,-55.786
0.053,-1.569,-0.916,-98.877,-199.646,-26.733
0.070,-1.672,-0.812,-98.877,-218.079,5.371
0.108,-1.693,-0.565,-92.346,-239.380,38.269
0.150,-1.547,-0.408,-77.209,-247.559,71.777
0.247,-1.401,-0.182,-57.800,-251.221,95.276
0.232,-1.315,-0.129,-37.048,-251.099,109.619
0.211,-1.242,-0.169,-20.874,-245.483,122.925
0.177,-1.117,-0.196,-20.020,-240.540,138.794
0.205,-0.936,-0.106,-25.574,-239.380,154.297
0.293,-0.575,0.102,-26.367,-238.708,169.800
0.387,-0.420,0.297,-18.433,-230.530,169.617
0.465,-0.447,0.444,-9.583,-217.834,159.302
0.477,-0.474,0.416,2.930,-199.280,148.804
0.464,-0.734,0.215,13.306,-180.847,142.456
0.539,-0.782,0.302,14.160,-179.626,153.442
0.575,-0.768,0.531,13.184,-174.133,163.574
0.565,-0.906,0.476,13.306,-161.011,171.387
0.637,-0.739,0.646,14.099,-152.039,189.819
0.635,-0.745,0.798,16.235,-138.245,200.012
0.639,-0.647,0.803,10.254,-116.760,210.754
0.630,-0.341,0.732,5.005,-91.370,224.426
0.676,0.147,0.722,-2.563,-72.571,232.605
0.758,0.502,0.812,-9.644,-53.406,225.098
0.834,0.737,0.891,-12.024,-37.903,203.552
0.918,1.002,0.838,-5.920,-20.325,177.307
1.001,1.115,0.787,3.296,-9.033,145.264
1.037,0.775,0.778,9.277,-0.732,103.760
1.065,0.409,0.742,13.184,11.108,69.336
1.066,0.171,0.577,17.700,24.597,52.429
1.067,0.189,0.486,12.817,38.940,49.561
1.025,0.120,0.334,3.418,47.668,45.593
0.997,-0.042,0.153,-5.432,50.476,38.330
0.995,0.062,0.090,-18.799,51.331,44.617
1.001,0.250,0.063,-32.837,46.509,52.002
1.001,0.378,0.070,-41.626,39.856,50.598
1.003,0.392,0.048,-43.579,37.598,40.771
1.004,0.299,0.032,-43.152,34.363,30.090
1.013,0.221,0.029,-37.415,26.123,22.644
1.018,0.203,0.055,-26.917,18.311,18.738
1.022,0.148,0.056,-15.991,15.015,14.160
1.036,0.134,0.064,-6.592,13.794,11.047
1.036,0.133,0.077,0.671,10.071,9.033
1.022,0.111,0.052,4.089,7.751,6.531
1.013,0.092,0.002,4.211,8.850,6.042
1.014,0.115,0.026,1.282,8.972,7.568
1.021,0.123,0.084,-2.808,7.202,9.155
1.012,0.118,0.089,-7.324,5.920,9.705
1.012,0.132,0.021,-10.498,8.728,10.803
1.007,0.099,0.038,-11.414,9.216,10.315
1.006,0.124,0.037,-9.949,6.714,10.132
1.001,0.139,0.024,-6.470,5.676,9.094
1.001,0.141,0.017,-3.296,3.845,6.714
0.999,0.180,0.031,-0.122,4.089,4.028
0.993,0.209,0.020,2.258,5.676,0.244
0.988,0.187,-0.031,5.432,2.563,-3.967
0.986,0.176,-0.049,7.202,-1.465,-7.324
0.993,0.108,0.009,9.094,-4.089,-10.620
0.992,-0.014,0.055,8.362,-8.972,-12.756
0.994,-0.052,0.054,5.676,-8.240,-9.888
1.007,-0.034,0.042,4.272,-3.906,-5.432
1.007,-0.045,0.078,2.502,-3.296,-3.174
1.002,-0.035,0.083,0.916,-4.150,-1.221
1.000,0.018,0.094,0.000,-2.197,1.709

0.504,1.540,1.420,-11.719,116.028,350.159
0.529,1.690,1.366,-11.658,150.085,318.909
0.532,1.760,1.327,-25.330,189.331,286.011
0.472,1.957,1.219,-51.453,229.126,260.986
0.339,2.043,0.889,-84.595,269.043,232.483
0.178,2.048,0.390,-113.831,301.392,196.899
0.081,2.044,0.032,-137.573,313.965,157.715
0.041,2.002,-0.229,-149.292,318.481,116.455
0.021,1.858,-0.440,-147.705,316.833,72.937
0.021,1.747,-0.449,-134.949,299.377,33.508
0.008,1.625,-0.300,-119.751,277.588,0.793
0.011,1.601,-0.144,-106.262,264.038,-27.100
0.054,1.782,-0.346,-93.506,261.902,-52.734
0.009,1.934,-0.862,-75.989,268.188,-86.121
-0.194,1.788,-1.619,-68.420,265.137,-129.272
-0.243,1.199,-1.844,-83.069,239.197,-164.246
0.026,1.349,-1.617,-110.840,184.753,-169.250
0.096,1.658,-1.156,-124.573,130.554,-169.922
0.145,1.650,-0.663,-140.686,88.745,-187.561
0.100,1.599,0.047,-171.814,69.946,-219.177
0.123,1.160,0.387,-197.815,87.219,-265.503
-0.006,0.895,0.335,-212.219,130.249,-286.682
-0.089,0.566,-0.274,-216.309,170.471,-300.110
-0.174,0.105,-1.027,-218.750,187.439,-302.856
-0.113,-0.386,-1.038,-229.187,158.264,-294.983
0.054,-0.597,-0.882,-230.896,122.131,-276.123
0.153,-0.872,-1.165,-223.755,115.173,-250.244
0.232,-1.021,-1.453,-226.440,108.948,-213.684
0.241,-1.099,-1.208,-238.159,84.717,-179.687
0.340,-0.973,-0.882,-236.023,62.256,-148.926
0.401,-0.671,-0.769,-213.562,54.565,-124.207
0.362,-0.552,-0.874,-191.406,58.655,-112.305
0.326,-0.536,-1.044,-169.617,60.669,-110.779
0.319,-0.308,-1.162,-156.921,54.138,-105.042
0.284,-0.159,-1.248,-144.592,37.720,-104.309
0.256,-0.033,-1.276,-135.010,11.414,-111.755
0.222,-0.059,-1.286,-125.122,-13.794,-124.268
0.188,-0.215,-1.309,-117.126,-36.926,-136.719
0.239,-0.539,-1.287,-107.361,-61.096,-144.775
0.158,-0.738,-1.040,-105.774,-83.557,-142.822
0.181,-0.648,-1.208,-97.839,-86.609,-129.333
0.166,-0.667,-1.271,-81.238,-96.008,-120.605
0.094,-0.699,-1.265,-73.242,-111.023,-115.601
0.030,-0.906,-1.279,-68.726,-122.437,-112.427
0.010,-0.830,-1.389,-70.007,-135.986,-99.365
0.022,-0.706,-1.338,-68.542,-154.419,-82.642
0.062,-0.616,-1.219,-68.665,-178.223,-74.890
0.069,-0.546,-1.105,-62.805,-193.970,-71.838
0.032,-0.669,-1.001,-50.354,-206.055,-75.134
0.056,-0.906,-0.991,-33.875,-218.506,-77.087
0.079,-1.088,-0.871,-26.794,-231.934,-68.115
0.063,-1.052,-0.829,-27.710,-236.023,-48.279
0.109,-1.043,-0.654,-25.635,-240.173,-30.945
0.174,-1.034,-0.547,-22.827,-243.896,-18.250
0.170,-1.027,-0.538,-17.395,-241.455,-6.165
0.169,-1.085,-0.514,-12.512,-240.417,4.333
0.218,-1.137,-0.448,-11.780,-239.685,17.578
0.232,-1.102,-0.373,-15.991,-236.328,35.767
0.284,-0.957,-0.315,-18.555,-231.262,53.772
0.351,-0.755,-0.101,-15.381,-229.431,62.927
0.370,-0.637,-0.007,-11.353,-221.191,64.331
0.367,-0.735,-0.107,-9.155,-206.848,61.523
0.365,-0.882,-0.186,-10.193,-198.608,64.209
0.413,-1.034,-0.077,-11.780,-201.660,74.341
0.444,-1.173,0.096,-10.559,-204.529,89.355
0.477,-1.288,0.151,-3.967,-199.036,106.873
0.489,-1.313,0.148,2.930,-188.416,126.770
0.488,-1.245,0.230,7.568,-181.152,145.935
0.472,-0.907,0.406,6.165,-173.401,164.429
0.479,-0.650,0.482,3.174,-158.691,175.110
0.485,-0.396,0.484,5.798,-143.738,179.626
0.516,-0.283,0.563,13.550,-136.963,177.490
0.652,-0.234,0.708,18.372,-135.315,169.861
0.651,-0.307,0.756,18.616,-127.502,161.438
0.740,-0.360,0.773,9.949,-111.084,159.668
0.758,-0.636,0.801,2.197,-95.642,158.997
0.780,-0.627,0.787,-4.517,-82.520,169.373
0.876,-0.431,0.859,-7.996,-66.101,185.425
0.790,-0.377,0.902,-4.456,-49.011,190.186
0.843,-0.235,0.916,-3.174,-31.982,194.702
0.845,-0.105,0.932,5.798,-12.878,200.378
0.840,0.216,0.922,19.958,3.052,198.608
0.856,0.361,0.875,27.954,22.705,187.622
0.916,0.740,0.899,24.841,37.537,179.810
0.953,0.981,0.764,29.358,49.622,158.203
0.975,1.054,0.611,32.043,60.974,127.869
0.958,1.026,0.336,31.799,71.716,95.947
0.944,0.890,0.012,25.146,74.707,67.383
0.935,0.695,-0.206,17.212,64.148,44.983
0.965,0.473,-0.191,8.484,46.570,30.762
1.006,0.301,-0.121,-3.052,32.959,26.428
1.034,0.380,-0.110,-17.578,25.574,29.724
1.060,0.499,-0.100,-20.996,21.057,30.762
1.059,0.490,-0.008,-13.550,12.207,22.400
1.040,0.447,-0.029,-3.784,8.118,12.695
1.007,0.408,-0.096,6.104,6.409,5.554
1.000,0.379,-0.114,15.625,0.671,-0.061
0.993,0.360,-0.063,22.644,-7.141,-3.418
0.982,0.341,-0.036,27.405,-11.414,-7.019
0.981,0.325,-0.018,30.151,-16.785,-10.498
0.982,0.285,-0.008,32.532,-21.545,-14.343
1.003,0.126,0.079,31.006,-22.461,-17.761
1.000,0.049,0.156,23.254,-18.372,-15.503
1.005,0.154,0.124,18.005,-9.155,-7.568
1.019,0.183,0.161,14.465,-3.357,-4.089
1.002,0.194,0.130,8.545,2.136,-3.906
1.001,0.249,0.058,6.104,7.690,-2.869
1.001,0.270,0.043,5.676,7.324,-4.333
0.991,0.214,0.034,5.310,6.042,-7.690
0.986,0.165,0.013,3.845,4.822,-9.155
0.990,0.160,0.007,2.075,2.258,-8.789
0.982,0.155,-0.000,-0.061,0.244,-8.606
0.981,0.125,-0.036,-2.441,-0.305,-9.033
0.987,0.139,-0.009,-2.197,-1.526,-7.996
0.992,0.141,0.029,-0.183,-3.967,-8.057
0.990,0.139,0.029,1.404,-3.906,-8.423
0.994,0.167,0.010,2.869,-4.883,-8.911
0.993,0.149,0.054,4.211,-8.667,-10.864
0.989,0.064,0.071,5.005,-11.597,-12.878

-0.077,2.500,-0.784,-75.012,303.040,173.889
0.003,2.524,-0.765,-74.951,278.992,116.089
0.038,2.329,-0.572,-72.388,250.671,58.228
-0.032,2.109,-0.648,-65.674,242.798,13.000
-0.123,1.891,-0.931,-62.927,240.417,-20.813
-0.191,1.674,-1.370,-65.063,231.628,-43.091
-0.160,1.538,-1.579,-77.515,209.412,-52.429
-0.251,1.823,-1.611,-101.868,179.260,-54.626
-0.205,1.653,-1.218,-116.516,136.536,-84.534
-0.075,1.588,-0.896,-119.690,101.379,-126.404
-0.015,1.430,-0.527,-124.817,90.393,-163.147
-0.007,1.584,-0.520,-143.372,102.661,-176.208
-0.064,1.557,-0.843,-151.306,109.192,-208.435
-0.164,1.463,-0.925,-162.781,94.482,-244.446
-0.230,1.273,-0.721,-176.453,67.322,-278.748
-0.277,1.208,-0.555,-192.749,47.241,-306.763
-0.158,0.976,-0.299,-206.909,33.691,-331.482
-0.176,0.790,-0.155,-218.384,39.368,-346.436
-0.252,0.500,-0.439,-241.577,64.880,-360.352
-0.268,-0.125,-0.823,-242.737,71.960,-376.526
-0.039,-0.742,-0.968,-225.952,57.983,-375.793
0.011,-1.261,-1.036,-219.055,35.706,-358.826
0.076,-1.207,-1.340,-203.125,18.250,-308.167
0.243,-1.087,-1.441,-172.302,-1.465,-260.193
0.294,-1.180,-1.396,-153.259,-23.560,-239.563
0.289,-1.077,-1.150,-142.090,-40.955,-215.088
0.298,-0.829,-0.944,-131.775,-52.979,-187.622
0.306,-0.643,-0.973,-114.441,-56.213,-167.908
0.264,-0.546,-0.944,-106.201,-65.491,-157.288
0.262,-0.365,-0.828,-110.840,-78.125,-146.179
0.248,-0.270,-0.769,-116.394,-86.060,-141.724
0.202,-0.407,-0.771,-118.408,-92.590,-145.996
0.158,-0.647,-0.886,-115.906,-98.206,-148.437
0.188,-0.877,-0.993,-111.023,-106.262,-141.235
0.247,-0.903,-0.897,-107.971,-120.544,-125.366
0.289,-0.857,-0.763,-105.103,-130.737,-108.276
0.346,-0.920,-0.725,-100.342,-131.958,-97.595
0.291,-0.944,-0.740,-97.351,-130.859,-86.731
0.313,-0.984,-0.855,-94.421,-131.287,-75.684
0.293,-0.960,-0.894,-93.201,-139.587,-63.782
0.290,-1.014,-0.839,-93.323,-154.114,-50.537
0.304,-1.018,-0.784,-92.407,-166.870,-34.790
0.372,-0.865,-0.663,-89.050,-177.124,-16.602
0.403,-0.631,-0.464,-80.200,-184.937,-4.944
0.419,-0.565,-0.288,-63.354,-188.477,-6.104
0.431,-0.750,-0.313,-40.710,-183.655,-14.832
0.414,-0.958,-0.418,-26.489,-180.847,-16.052
0.402,-1.087,-0.514,-23.804,-183.594,-4.822
0.429,-1.163,-0.456,-27.588,-190.247,12.268
0.458,-1.298,-0.350,-32.776,-194.519,30.457
0.465,-1.354,-0.256,-31.982,-195.007,51.453
0.497,-1.324,-0.134,-25.452,-196.533,75.684
0.501,-1.306,-0.047,-13.184,-196.533,95.642
0.527,-1.281,0.023,2.197,-193.359,113.403
0.468,-1.265,0.061,16.113,-190.063,130.615
0.492,-1.159,0.145,23.376,-184.509,150.208
0.470,-1.015,0.281,30.762,-180.847,166.748
0.435,-0.916,0.305,32.654,-175.598,179.565
0.510,-0.679,0.424,28.381,-166.260,195.068
0.456,-0.564,0.525,25.085,-158.020,200.012
0.505,-0.402,0.555,16.846,-143.799,203.491
0.617,-0.252,0.691,16.541,-135.803,207.764
0.603,-0.370,0.715,14.221,-121.948,199.341
0.691,-0.119,0.709,8.240,-107.483,203.491
0.724,-0.082,0.757,10.620,-96.436,201.172
0.744,-0.141,0.709,9.705,-79.834,191.956
0.776,-0.054,0.725,4.700,-65.430,189.819
0.812,0.167,0.773,3.235,-54.199,188.538
0.895,0.374,0.891,6.470,-42.480,181.946
0.941,0.439,0.932,14.771,-26.550,166.199
0.974,0.467,0.834,27.161,-7.446,146.790
0.985,0.616,0.731,34.363,8.118,132.202
0.990,0.733,0.653,31.616,20.630,117.371
0.985,0.718,0.528,28.381,31.921,95.581
0.955,0.681,0.324,23.254,38.574,73.914
0.969,0.598,0.107,14.160,42.664,57.617
0.999,0.407,0.125,1.526,32.776,44.495
1.003,0.372,0.104,-13.184,23.865,40.100
1.019,0.305,0.113,-21.912,24.048,37.659
1.030,0.250,0.187,-26.367,19.958,34.729
1.050,0.261,0.206,-27.649,19.348,34.363
1.040,0.300,0.142,-26.550,24.719,33.569
1.012,0.291,0.058,-21.790,23.987,30.396
1.006,0.301,0.012,-15.259,22.522,27.161
1.001,0.309,-0.013,-9.460,22.034,24.231
0.990,0.354,-0.015,-6.653,18.127,21.729
0.987,0.390,-0.012,-4.700,12.024,18.555
0.990,0.428,-0.007,-1.038,7.568,13.550
0.990,0.464,-0.019,3.296,7.202,7.141
0.985,0.426,-0.025,5.432,6.165,-0.732
0.990,0.364,-0.019,8.362,0.977,-7.263
0.992,0.309,0.004,13.000,-3.540,-12.329
1.000,0.216,0.028,16.541,-6.226,-15.991
0.992,0.092,0.038,15.381,-5.188,-16.907
0.990,0.107,-0.005,12.512,-2.930,-11.841
0.998,0.119,0.039,10.681,-3.174,-7.568
0.997,0.092,0.091,9.460,-4.944,-6.348
1.001,0.110,0.061,9.949,-3.723,-4.700
0.994,0.159,0.058,7.202,0.305,-3.113
0.989,0.191,0.077,4.700,-1.648,-3.113
0.993,0.194,0.132,5.554,-2.014,-5.127
0.990,0.187,0.113,7.019,1.831,-7.874
0.977,0.150,0.051,7.507,4.944,-10.498
0.984,0.081,0.023,7.385,2.441,-12.085
0.985,0.019,0.032,4.578,-1.587,-10.803
0.977,-0.006,0.008,1.160,-0.183,-6.836
0.985,0.016,0.056,0.244,-0.916,-2.441
0.991,0.046,0.069,0.000,-2.441,0.244
0.985,0.052,0.065,0.549,-2.869,1.343
0.993,0.066,0.066,1.587,-4.028,1.404
0.986,0.103,0.069,2.075,-4.150,1.526
0.980,0.133,0.103,2.075,-2.747,0.427
0.980,0.171,0.102,2.319,-2.197,-1.282
0.974,0.161,0.057,2.625,0.427,-3.479
0.979,0.136,0.045,1.953,0.793,-6.104
0.981,0.120,0.054,1.526,-2.563,-7.568
0.984,0.092,0.062,1.465,-1.648,-8.728
0.984,0.024,0.088,1.465,-3.540,-10.254
0.975,-0.011,0.072,0.610,-1.282,-9.155

0.096,1.409,1.235,-11.658,238.098,358.032
0.131,1.647,1.145,-34.119,275.696,340.149
0.064,1.914,1.023,-57.861,307.922,318.176
-0.051,1.939,0.527,-79.834,347.046,282.166
-0.168,1.788,-0.005,-98.755,369.202,238.098
-0.246,1.902,-0.532,-100.159,372.437,199.219
-0.219,2.164,-0.850,-89.050,351.074,162.109
-0.097,2.291,-0.663,-75.439,308.289,117.310
0.028,2.255,-0.146,-70.374,275.879,70.313
0.051,2.140,-0.099,-80.139,271.240,27.527
-0.090,2.141,-0.778,-93.018,279.419,-5.859
-0.361,2.011,-1.678,-99.792,267.456,-40.100
-0.382,2.036,-2.062,-98.328,220.825,-70.679
-0.281,1.958,-1.633,-85.510,149.780,-102.844
-0.151,1.997,-1.332,-73.486,104.858,-135.376
-0.123,1.610,-0.673,-82.397,87.891,-168.579
-0.039,1.164,-0.094,-106.201,86.914,-194.214
-0.097,1.509,-0.346,-112.122,111.572,-206.543
-0.055,1.709,-0.868,-113.098,131.042,-236.572
-0.130,1.844,-0.896,-142.944,120.422,-261.841
-0.303,1.478,-0.464,-179.321,81.970,-302.856
-0.434,1.274,-0.341,-199.402,62.317,-335.022
-0.429,1.221,-0.371,-216.919,64.514,-352.539
-0.502,0.917,-0.547,-224.792,65.552,-374.146
-0.514,0.526,-0.729,-221.863,55.237,-392.883
-0.514,0.236,-0.959,-216.858,40.588,-404.053
-0.384,-0.526,-0.997,-199.280,15.564,-419.312
-0.284,-1.405,-0.922,-175.964,-9.644,-421.997
-0.176,-1.624,-1.214,-150.635,-10.132,-379.272
0.043,-1.244,-1.405,-149.597,-2.747,-309.021
0.001,-1.155,-1.471,-163.757,-14.404,-263.977
0.037,-1.260,-1.622,-168.884,-30.334,-237.061
0.077,-1.089,-1.454,-169.739,-62.805,-203.308
0.167,-0.791,-1.020,-176.331,-98.511,-167.969
0.227,-0.314,-0.744,-169.495,-112.549,-145.142
0.239,-0.075,-0.685,-155.029,-110.107,-143.921
0.213,-0.150,-0.691,-134.583,-111.328,-159.851
0.212,-0.339,-0.711,-114.685,-111.511,-173.279
0.222,-0.625,-0.879,-106.628,-111.755,-176.208
0.158,-1.029,-0.997,-118.408,-119.141,-165.894
0.165,-1.090,-1.088,-124.207,-128.418,-137.207
0.225,-0.972,-0.966,-121.521,-143.494,-111.816
0.259,-0.832,-0.786,-121.643,-158.936,-93.872
0.281,-0.834,-0.619,-117.859,-161.255,-88.562
0.288,-0.899,-0.544,-110.168,-159.302,-83.862
0.309,-0.868,-0.522,-99.731,-159.180,-74.829
0.322,-0.808,-0.534,-90.576,-161.072,-65.063
0.315,-0.951,-0.570,-83.618,-162.292,-58.350
0.294,-1.195,-0.570,-76.233,-165.833,-49.194
0.323,-1.288,-0.579,-65.430,-173.401,-29.663
0.355,-1.191,-0.506,-56.091,-181.702,-7.385
0.369,-1.182,-0.411,-48.523,-190.979,8.240
0.370,-1.197,-0.301,-36.865,-199.036,20.935
0.385,-1.161,-0.243,-28.687,-205.017,37.170
0.385,-1.133,-0.173,-24.475,-207.642,54.077
0.404,-1.160,-0.056,-18.372,-208.435,67.993
0.436,-1.245,0.013,-10.681,-203.125,81.726
0.435,-1.350,-0.009,-6.165,-196.594,98.633
0.443,-1.461,0.092,-5.676,-192.993,118.469
0.466,-1.445,0.252,-0.854,-190.063,142.517
0.482,-1.302,0.395,6.531,-182.739,167.603
0.475,-1.232,0.458,12.451,-166.687,187.988
0.422,-1.192,0.346,9.644,-147.949,205.872
0.399,-1.113,0.317,3.296,-138.550,226.807
0.382,-0.924,0.513,-1.953,-134.949,247.620
0.388,-0.651,0.605,-3.479,-125.732,265.137
0.489,-0.045,0.647,-1.587,-117.920,281.006
0.567,0.371,0.695,1.587,-106.323,277.161
0.651,0.456,0.725,4.028,-89.294,252.380
0.703,0.364,0.603,8.179,-74.097,222.351
0.742,0.247,0.519,6.042,-62.683,198.730
0.800,0.233,0.629,1.831,-55.359,183.960
0.885,0.448,0.799,-0.427,-51.147,177.246
0.968,0.702,0.881,2.197,-39.185,165.161
1.003,0.750,0.805,4.517,-16.113,142.212
1.000,0.595,0.675,7.080,-0.488,116.394
0.964,0.389,0.477,12.817,11.536,93.018
0.949,0.373,0.241,14.099,19.165,82.153
0.952,0.329,0.105,7.385,15.930,73.975
0.971,0.322,0.151,-4.639,9.033,68.237
0.991,0.375,0.146,-16.785,8.057,64.941
1.010,0.471,0.199,-24.658,9.338,59.875
1.016,0.507,0.244,-27.710,7.568,50.171
1.019,0.488,0.277,-29.236,9.094,38.696
1.001,0.441,0.207,-26.245,13.794,28.381
1.002,0.336,0.119,-21.057,16.602,19.592
1.012,0.258,0.148,-14.160,12.268,13.977
1.017,0.221,0.166,-9.338,8.179,11.353
1.016,0.229,0.148,-5.981,11.108,10.498
1.008,0.190,0.122,-3.967,13.000,9.094
1.001,0.237,0.069,-2.686,13.245,9.583
0.996,0.303,0.052,-2.136,8.911,9.888
1.004,0.339,0.058,-1.404,3.357,7.080
1.021,0.331,0.074,-0.977,1.282,2.930
1.017,0.313,0.135,-2.563,0.854,-0.549
1.018,0.324,0.166,-0.305,1.221,-3.052
1.000,0.244,0.141,2.197,3.113,-7.751
0.991,0.138,0.081,3.357,4.517,-11.047
0.995,0.102,0.046,6.104,1.343,-9.827
0.991,0.044,0.088,6.592,-2.319,-7.874
0.997,0.049,0.112,7.141,-2.136,-4.333
0.987,0.052,0.120,6.775,0.488,-1.831
0.972,0.065,0.090,6.165,2.869,0.427
0.974,0.097,0.079,5.005,1.465,2.930
0.989,0.191,0.075,5.066,-1.343,4.272
0.988,0.213,0.089,4.028,-0.427,2.380
0.979,0.194,0.112,4.272,-3.906,-1.770
0.977,0.193,0.111,5.798,-5.310,-4.211
0.983,0.161,0.106,5.676,-2.808,-7.141
0.987,0.103,0.111,5.005,-1.404,-9.705
0.983,0.059,0.088,3.967,-0.427,-10.254
0.987,0.028,0.082,2.625,-2.747,-8.484
0.993,0.035,0.130,1.892,-6.226,-6.042
0.991,0.055,0.156,1.587,-3.845,-4.028
0.985,0.058,0.155,1.221,-1.099,-3.540
0.978,0.058,0.122,0.854,0.000,-3.113
0.973,0.058,0.111,0.488,-0.427,-2.502
0.968,0.036,0.114,-0.671,-0.122,-2.319
0.973,0.063,0.104,-1.465,0.977,-1.526

0.107,1.301,0.859,-59.265,298.096,277.954
-0.007,1.419,0.527,-88.501,330.200,260.132
-0.093,1.730,0.083,-116.882,347.656,242.310
-0.115,1.950,-0.257,-143.066,349.243,212.402
-0.141,1.894,-0.358,-167.603,339.600,169.250
-0.102,1.900,-0.429,-180.481,327.820,128.296
-0.066,1.953,-0.742,-173.950,316.040,90.088
-0.085,1.841,-1.031,-161.377,299.805,44.250
-0.104,1.949,-1.514,-139.038,282.043,2.747
-0.144,1.898,-1.743,-120.850,250.366,-38.391
-0.091,2.160,-1.849,-108.765,205.200,-77.026
-0.118,2.247,-1.769,-106.079,157.104,-119.873
-0.012,1.754,-1.013,-105.713,107.849,-172.485
0.150,2.058,-0.390,-115.845,79.407,-204.590
0.054,2.193,-0.290,-115.173,87.585,-244.080
-0.153,1.798,-0.374,-134.766,104.431,-304.504
-0.334,1.412,-0.363,-171.753,110.718,-346.436
-0.437,1.079,-0.403,-205.933,106.812,-366.455
-0.453,0.707,-0.393,-229.065,94.177,-375.732
-0.328,0.352,-0.339,-240.784,75.256,-376.770
-0.370,-0.076,-0.486,-242.310,62.805,-377.197
-0.288,-0.502,-0.849,-237.671,60.181,-371.887
-0.179,-0.788,-1.049,-226.013,48.645,-352.478
-0.047,-1.151,-0.992,-218.872,27.771,-330.017
0.051,-1.451,-0.948,-201.172,15.991,-307.617
0.159,-1.523,-1.106,-185.913,17.578,-273.315
0.191,-1.563,-1.260,-177.673,12.085,-235.107
0.199,-1.530,-1.260,-163.452,-4.883,-194.092
0.250,-1.143,-1.121,-158.997,-23.010,-144.592
0.280,-0.649,-0.883,-163.696,-38.513,-103.760
0.268,-0.176,-0.789,-161.621,-42.603,-85.144
0.249,-0.107,-0.887,-145.081,-40.894,-97.534
0.215,-0.185,-0.997,-127.686,-45.044,-117.432
0.155,-0.346,-1.121,-118.713,-54.993,-126.831
0.099,-0.384,-1.254,-100.769,-70.374,-130.859
0.056,-0.602,-1.363,-76.904,-89.478,-143.677
0.079,-1.006,-1.287,-58.167,-114.807,-151.062
0.122,-1.300,-1.088,-51.331,-134.155,-138.062
0.154,-1.143,-1.120,-56.763,-138.123,-104.614
0.116,-0.848,-1.134,-57.861,-141.479,-75.745
0.133,-0.827,-1.048,-57.800,-152.588,-66.772
0.128,-0.911,-1.018,-51.819,-161.926,-64.575
0.144,-0.933,-1.013,-47.668,-169.373,-55.664
0.152,-0.948,-1.019,-42.114,-179.565,-43.579
0.160,-1.009,-1.001,-36.316,-190.613,-32.104
0.180,-0.976,-0.952,-31.372,-203.796,-18.188
0.179,-0.877,-0.800,-26.001,-216.125,-6.042
0.222,-0.800,-0.738,-21.240,-223.022,1.526
0.233,-0.774,-0.572,-16.296,-232.849,5.615
0.246,-0.697,-0.494,-14.709,-239.441,10.559
0.263,-0.714,-0.456,-12.329,-241.211,12.695
0.291,-0.810,-0.391,-10.315,-241.272,14.038
0.324,-0.954,-0.242,-9.216,-244.934,18.250
0.373,-0.998,-0.120,-9.399,-244.141,29.846
0.441,-1.018,-0.011,-7.141,-233.643,41.992
0.460,-0.987,-0.035,-3.174,-218.262,53.711
0.477,-1.035,-0.082,2.197,-208.374,63.660
0.501,-1.019,-0.013,5.615,-204.285,74.646
0.504,-0.908,0.062,11.047,-199.890,87.952
0.518,-0.880,0.162,14.587,-195.679,97.107
0.520,-0.952,0.202,19.287,-189.514,104.736
0.513,-0.947,0.164,22.888,-181.458,115.845
0.527,-0.930,0.238,26.123,-178.894,127.747
0.545,-0.958,0.368,26.855,-176.086,138.428
0.548,-0.939,0.435,28.442,-167.297,150.024
0.560,-0.830,0.498,32.654,-158.081,161.682
0.544,-0.791,0.496,35.950,-147.095,170.105
0.568,-0.674,0.615,31.494,-140.381,181.580
0.579,-0.432,0.694,30.334,-132.019,193.420
0.641,-0.112,0.770,30.640,-122.925,200.073
0.717,0.080,0.928,31.067,-112.610,193.604
0.773,0.076,1.052,28.198,-96.375,177.063
0.823,0.164,1.125,24.841,-77.454,164.001
0.907,0.399,1.068,25.757,-55.664,156.250
0.945,0.383,1.066,23.560,-37.720,139.954
0.977,0.197,1.050,15.869,-18.982,120.605
0.997,-0.024,0.942,8.728,0.610,107.483
0.998,-0.126,0.799,-0.183,20.447,104.431
1.023,-0.006,0.707,-10.620,35.339,107.117
0.915,-0.355,0.468,-17.334,47.180,101.685
0.954,-0.055,0.377,-31.921,54.443,117.859
0.917,-0.001,0.240,-41.077,56.580,126.038
0.895,0.137,0.006,-45.898,60.181,126.099
0.957,0.289,-0.095,-46.143,52.002,122.925
0.866,0.193,-0.066,-42.664,39.001,112.183
0.920,0.708,0.009,-48.828,28.015,116.821
0.943,0.806,0.075,-45.532,18.250,104.004
0.971,0.756,0.103,-38.086,12.390,78.674
0.989,0.602,0.114,-26.733,5.188,56.396
0.998,0.476,0.046,-15.930,4.333,42.419
1.007,0.314,0.037,-9.827,-2.930,33.447
1.008,0.227,0.121,-7.263,-7.690,30.701
1.005,0.243,0.088,-6.409,-7.874,32.288
1.006,0.275,0.078,-2.136,-7.263,32.715
0.988,0.214,0.104,0.000,-4.639,30.334
0.976,0.239,0.075,1.160,-4.944,30.151
0.962,0.270,0.045,2.686,-3.601,30.884
0.953,0.269,0.099,2.686,-7.263,29.480
0.963,0.351,0.195,2.869,-8.972,28.809
0.978,0.451,0.157,3.967,-4.089,26.306
0.972,0.389,0.121,5.737,-3.174,18.188
0.963,0.311,0.077,4.150,-0.366,11.780
0.963,0.336,0.068,1.160,-2.075,10.986
0.964,0.360,0.094,-2.747,-5.371,9.827
0.967,0.318,0.112,-7.324,-3.723,6.897
0.971,0.276,0.102,-9.033,-2.808,4.761
0.984,0.254,0.082,-8.667,-3.601,3.540
0.983,0.238,0.099,-9.338,-3.296,2.991
0.980,0.270,0.081,-10.193,-2.869,3.174
0.978,0.269,0.094,-8.362,-3.479,1.892
0.978,0.242,0.135,-5.920,-2.563,-0.671
0.965,0.241,0.093,-3.601,-2.747,-1.648
0.958,0.272,0.076,-1.709,-1.953,-2.075
0.958,0.263,0.079,0.000,-4.761,-3.723
0.958,0.209,0.081,1.343,-5.066,-6.104
0.963,0.196,0.130,2.625,-9.827,-6.897
0.971,0.220,0.187,4.456,-9.338,-6.531
0.980,0.220,0.198,5.798,-8.118,-8.423
0.967,0.153,0.173,5.859,-5.249,-10.986

0.554,-0.578,1.228,-13.550,64.880,260.559
0.475,-0.260,1.244,-10.315,94.177,290.283
0.438,-0.009,1.435,-8.057,119.751,308.716
0.386,0.419,1.634,-3.174,147.705,321.838
0.340,1.060,1.528,0.549,189.331,328.308
0.333,1.481,1.346,-7.935,232.056,314.880
0.326,1.648,1.293,-24.597,262.085,283.936
0.244,1.751,1.103,-48.462,294.312,252.014
0.163,1.869,0.820,-82.031,328.674,222.290
0.046,2.056,0.511,-116.577,356.934,189.758
-0.012,2.185,0.087,-154.297,378.357,150.879
-0.067,2.082,-0.352,-200.989,388.916,102.600
-0.106,1.880,-0.943,-244.080,387.451,55.054
-0.052,1.735,-1.190,-269.897,356.995,15.015
-0.111,1.580,-1.213,-283.081,322.205,-21.973
-0.131,1.588,-1.279,-290.527,288.147,-52.124
-0.075,1.825,-1.255,-278.259,251.709,-82.458
-0.038,1.935,-1.042,-257.568,213.745,-123.413
-0.068,1.762,-0.834,-240.845,188.599,-172.119
-0.038,1.639,-0.795,-215.149,169.067,-213.867
-0.050,1.575,-0.945,-202.271,152.161,-244.873
-0.258,1.126,-1.012,-206.665,128.296,-281.189
-0.268,0.657,-1.132,-194.153,107.483,-317.322
-0.204,0.120,-1.224,-184.204,88.013,-333.374
-0.147,-0.366,-1.165,-182.251,66.956,-329.773
-0.167,-0.464,-1.392,-180.664,61.279,-306.946
-0.080,-0.528,-1.320,-190.796,45.227,-276.001
0.035,-0.570,-0.954,-190.308,19.043,-255.981
0.140,-0.348,-0.870,-177.917,13.855,-237.915
0.153,-0.248,-0.936,-171.753,11.780,-229.492
0.147,-0.498,-1.104,-169.800,6.958,-235.107
0.139,-0.635,-1.153,-161.316,-7.507,-235.168
0.198,-0.640,-1.079,-149.048,-25.574,-223.938
0.143,-0.641,-0.961,-132.996,-41.260,-212.769
0.171,-0.802,-0.852,-123.657,-46.265,-203.918
0.145,-0.771,-0.829,-112.488,-46.692,-187.378
0.127,-0.638,-0.908,-100.708,-44.128,-169.189
0.128,-0.657,-0.960,-92.834,-45.776,-163.696
0.062,-0.639,-1.118,-83.313,-49.988,-159.119
0.032,-0.700,-1.271,-82.031,-60.120,-156.128
0.023,-0.922,-1.343,-75.867,-76.294,-154.175
0.031,-0.912,-1.268,-58.777,-96.619,-143.860
0.050,-0.475,-1.155,-48.767,-118.286,-126.831
0.002,-0.380,-1.088,-40.771,-132.751,-130.920
-0.056,-0.496,-1.159,-29.053,-140.381,-147.705
-0.109,-0.595,-1.236,-20.142,-155.823,-158.447
-0.129,-0.676,-1.222,-19.165,-176.086,-160.400
-0.144,-0.821,-1.137,-20.264,-197.815,-155.701
-0.147,-0.858,-1.027,-21.240,-221.130,-146.118
-0.156,-1.138,-0.926,-14.648,-236.206,-142.334
-0.176,-1.494,-0.794,-11.292,-248.413,-135.864
-0.155,-1.669,-0.762,-15.076,-250.977,-110.901
-0.113,-1.592,-0.727,-22.095,-257.263,-75.378
-0.062,-1.273,-0.528,-28.076,-264.526,-45.776
-0.030,-1.084,-0.239,-27.527,-266.846,-33.997
0.021,-0.935,-0.159,-19.165,-259.705,-30.029
0.029,-0.809,-0.227,-13.428,-249.146,-27.710
0.079,-0.789,-0.034,-16.663,-247.986,-25.269
0.147,-0.726,0.172,-25.208,-243.591,-20.508
0.212,-0.745,0.215,-28.198,-229.126,-16.418
0.251,-1.006,0.182,-26.428,-215.515,-15.015
0.275,-1.460,0.198,-27.893,-205.017,-8.240
0.300,-1.864,0.218,-35.522,-194.946,14.832
0.344,-2.058,0.191,-43.213,-181.030,55.786
0.348,-2.333,0.169,-47.485,-169.067,101.685
0.292,-2.461,0.088,-48.279,-157.776,153.381
0.240,-2.249,0.035,-44.495,-149.475,210.999
0.191,-1.809,0.061,-42.480,-144.165,263.245
0.139,-1.442,0.145,-46.631,-139.038,298.767
0.071,-1.064,0.190,-53.040,-132.080,322.815
0.085,-0.665,0.291,-49.805,-128.906,338.928
0.137,-0.270,0.505,-44.250,-129.822,346.619
0.261,0.128,0.644,-47.058,-121.826,343.994
0.370,0.364,0.635,-35.645,-108.032,322.876
0.482,0.371,0.820,-20.813,-101.135,287.598
0.650,0.499,0.944,-10.620,-90.088,265.320
0.802,0.582,1.016,-1.709,-72.937,244.751
0.871,0.618,1.001,3.479,-52.063,218.994
0.870,0.582,0.685,9.338,-29.480,190.735
0.868,0.447,0.438,9.399,-21.240,162.598
0.937,0.503,0.321,8.118,-23.865,142.944
1.019,0.558,0.309,5.310,-29.175,128.296
1.042,0.491,0.473,-6.836,-34.180,112.183
1.066,0.373,0.555,-7.385,-30.151,92.529
1.050,0.300,0.505,-8.545,-15.930,80.750
1.064,0.328,0.449,-13.428,-5.005,74.524
1.064,0.334,0.402,-12.451,1.404,65.796
1.069,0.350,0.424,-8.911,5.310,55.969
1.057,0.410,0.485,-4.578,9.705,46.814
1.037,0.369,0.377,0.244,20.264,34.302
1.023,0.194,0.261,0.122,27.527,21.851
1.023,0.108,0.259,-1.709,27.283,17.395
1.012,0.053,0.220,-5.859,28.381,18.188
1.003,0.026,0.141,-10.315,30.212,20.264
1.003,0.050,0.121,-13.916,31.128,23.437
1.001,0.118,0.099,-16.541,29.968,26.062
0.995,0.150,0.069,-16.724,30.212,25.879
1.000,0.303,0.054,-15.076,26.550,25.452
1.001,0.401,0.028,-13.245,24.353,21.240
1.001,0.362,0.011,-10.681,20.020,11.536
1.010,0.324,0.057,-8.789,12.817,3.296
1.011,0.260,0.078,-7.629,9.583,-2.380
1.021,0.135,0.107,-6.226,7.507,-7.080
1.019,0.062,0.113,-4.333,7.690,-8.667
1.018,0.010,0.093,-1.892,8.057,-7.935
1.012,-0.038,0.067,0.366,7.996,-6.409
1.007,-0.040,0.058,1.404,6.897,-2.991
1.007,0.017,0.068,1.526,6.897,0.183
1.000,0.091,0.074,-0.244,6.348,2.441
0.990,0.125,0.094,-3.113,7.629,2.075
0.987,0.161,0.105,-5.188,7.568,0.610
0.989,0.158,0.105,-5.554,7.996,-2.319
0.991,0.122,0.103,-6.531,8.972,-5.310
0.991,0.087,0.092,-6.775,8.972,-7.629
0.993,0.030,0.070,-5.920,8.789,-9.521
0.997,-0.017,0.021,-4.700,9.216,-10.010
0.982,-0.094,0.018,-6.287,8.606,-9.033
0.985,-0.053,0.018,-8.667,6.897,-4.639
0.986,-0.025,0.049,-7.935,5.249,-2.380

0.358,1.751,1.681,3.113,131.897,376.831
0.437,2.098,1.398,-18.127,173.889,342.163
0.463,2.050,1.271,-47.791,206.116,291.138
0.446,1.925,1.196,-77.576,233.521,247.253
0.349,1.891,0.910,-101.624,263.733,214.172
0.250,1.864,0.414,-119.202,290.955,182.007
0.179,1.852,0.113,-134.949,302.185,147.522
0.139,1.706,0.004,-144.470,300.903,111.633
0.077,1.607,-0.049,-147.461,297.424,81.787
0.020,1.449,-0.014,-144.409,290.955,57.129
0.004,1.287,0.033,-137.878,286.133,36.743
0.022,1.329,-0.034,-128.662,288.391,24.231
0.061,1.396,-0.354,-116.943,297.485,11.108
0.051,1.346,-0.972,-105.469,307.678,-3.784
-0.025,1.418,-1.875,-107.361,299.866,-15.076
-0.216,1.468,-1.951,-119.507,252.319,-32.837
0.071,1.080,-1.248,-125.427,171.509,-74.219
0.315,1.254,-0.891,-134.521,111.206,-107.788
0.692,1.272,-0.124,-150.818,82.458,-118.896
0.527,1.573,0.112,-184.814,105.164,-122.742
0.255,1.453,-0.055,-234.863,159.424,-132.568
0.111,0.910,-0.268,-244.690,179.443,-175.354
0.037,0.648,-0.675,-241.699,189.880,-201.721
0.005,0.421,-0.981,-235.901,180.786,-208.313
0.062,0.179,-1.045,-218.689,157.898,-212.830
0.148,0.088,-1.083,-193.298,140.869,-213.074
0.238,0.117,-1.306,-167.358,130.676,-212.158
0.271,0.129,-1.670,-148.499,119.263,-217.285
0.232,-0.112,-1.484,-159.058,91.064,-225.708
0.229,-0.312,-0.918,-181.091,56.030,-226.929
0.319,-0.298,-0.789,-178.345,48.584,-220.154
0.363,-0.200,-1.104,-164.795,55.847,-212.219
0.329,-0.195,-1.531,-181.030,44.067,-211.304
0.110,-0.454,-1.174,-192.688,14.160,-217.712
0.189,-0.395,-1.146,-195.862,-0.122,-197.021
0.178,-0.280,-1.580,-187.439,-3.540,-175.537
0.121,-0.247,-1.496,-178.955,-37.964,-164.307
0.100,-0.197,-1.218,-176.453,-80.200,-159.058
0.045,-0.231,-1.179,-159.241,-100.952,-162.354
-0.025,-0.403,-1.205,-138.184,-114.136,-169.922
0.010,-0.593,-1.118,-120.422,-128.113,-175.354
0.057,-0.607,-1.119,-101.990,-134.155,-170.044
0.016,-0.655,-1.125,-89.966,-139.343,-162.964
-0.014,-0.822,-1.037,-85.815,-151.428,-157.837
-0.019,-0.828,-0.997,-86.182,-158.203,-144.165
-0.016,-0.739,-0.982,-87.463,-158.630,-125.488
0.005,-0.780,-0.885,-87.952,-163.818,-114.319
0.054,-0.836,-0.838,-84.290,-169.250,-104.614
0.084,-0.839,-0.820,-81.604,-174.133,-91.003
0.063,-0.810,-0.880,-79.407,-180.115,-77.026
0.056,-0.911,-0.898,-78.674,-190.735,-68.726
0.061,-1.113,-0.901,-75.256,-203.796,-65.186
0.133,-1.112,-0.767,-77.332,-220.581,-46.082
0.162,-1.006,-0.618,-71.167,-234.558,-25.696
0.154,-1.028,-0.413,-60.364,-244.080,-16.174
0.147,-1.000,-0.262,-45.044,-247.925,-9.644
0.148,-1.029,-0.201,-26.001,-242.493,-4.272
0.173,-1.181,-0.153,-11.292,-238.464,1.282
0.181,-1.302,-0.111,-3.601,-235.168,14.343
0.223,-1.301,-0.066,-0.122,-231.750,34.119
0.269,-1.323,0.083,-1.282,-229.370,53.406
0.364,-1.327,0.258,-5.066,-225.525,72.266
0.423,-1.237,0.290,-5.249,-213.013,90.271
0.449,-1.197,0.326,0.732,-199.890,101.196
0.502,-1.266,0.350,7.385,-187.500,107.300
0.526,-1.240,0.424,8.606,-177.063,120.422
0.511,-1.299,0.435,5.249,-162.598,132.751
0.492,-1.324,0.441,1.526,-147.400,149.536
0.499,-1.219,0.505,-0.488,-134.827,170.593
0.490,-1.044,0.659,-3.235,-123.352,189.392
0.473,-0.707,0.796,-4.272,-109.009,207.458
0.532,-0.315,0.856,-4.028,-88.745,222.351
0.568,-0.028,0.843,-3.235,-66.162,222.900
0.650,0.079,0.796,-3.540,-47.546,213.196
0.728,0.332,0.853,-3.174,-35.828,205.811
0.798,0.460,0.828,2.075,-20.508,188.049
0.846,0.398,0.640,8.301,1.831,159.912
0.863,0.294,0.474,4.578,17.395,137.207
0.865,0.273,0.322,-6.104,25.696,124.084
0.902,0.370,0.232,-17.700,28.931,116.211
0.935,0.414,0.198,-25.513,28.809,103.333
0.981,0.404,0.120,-29.968,31.555,85.815
1.031,0.386,0.002,-30.273,36.560,68.054
1.053,0.326,-0.100,-24.719,34.424,51.086
1.068,0.247,-0.192,-14.038,27.405,36.804
1.090,0.147,-0.175,-5.798,14.160,26.245
1.091,0.061,-0.085,4.028,0.000,18.433
1.091,-0.050,0.032,13.550,-8.301,13.733
1.087,-0.089,0.132,18.555,-10.742,13.611
1.073,-0.098,0.097,24.109,-6.409,16.357
1.074,-0.101,0.054,26.611,-2.380,19.226
1.072,-0.055,0.112,24.719,-3.662,23.193
1.093,0.062,0.182,22.217,-6.287,26.733
1.083,0.182,0.208,24.963,-4.333,25.940
1.059,0.142,0.204,26.978,-0.671,18.982
1.048,0.083,0.163,26.306,2.686,13.733
1.043,0.058,0.107,26.123,4.883,12.939
1.055,0.028,0.051,27.405,5.310,12.817
1.062,0.007,0.014,25.330,3.235,13.184
1.059,-0.000,-0.001,20.813,-0.793,14.221
1.050,-0.030,0.015,17.517,-4.333,14.526
1.042,-0.052,0.020,15.259,-8.301,14.771
1.036,-0.035,-0.011,16.602,-10.559,16.113
1.022,-0.032,-0.017,19.653,-13.611,16.174
1.013,0.001,0.030,19.531,-17.883,16.479
1.023,0.084,0.075,17.639,-20.874,17.090
1.017,0.130,0.138,15.930,-21.118,13.855
1.008,0.136,0.181,13.489,-19.287,8.240
0.996,0.155,0.180,12.512,-14.160,3.113
0.992,0.144,0.163,13.184,-9.827,-1.953
0.998,0.079,0.138,14.526,-4.761,-7.507
0.998,-0.013,0.100,15.503,-2.991,-12.512
0.995,-0.108,0.088,14.282,-1.526,-14.160
0.997,-0.159,0.083,14.038,-1.404,-12.329
1.002,-0.177,0.066,13.733,-0.916,-8.484
0.999,-0.181,0.030,15.381,0.305,-4.700
0.988,-0.243,0.001,15.503,0.061,-2.502
0.991,-0.213,0.010,14.038,-2.014,2.014
1.011,-0.082,0.018,11.047,-3.845,8.362

0.641,-1.124,0.817,-112.305,13.916,223.389
0.572,-0.985,0.973,-122.559,34.851,262.146
0.499,-0.654,1.090,-126.709,64.819,299.866
0.458,-0.297,1.130,-121.948,95.398,328.796
0.379,0.020,1.034,-106.628,126.526,346.558
0.332,0.356,0.932,-89.417,153.198,356.079
0.265,0.543,0.846,-70.557,173.828,353.149
0.223,0.661,0.676,-57.800,194.153,343.811
0.154,0.668,0.616,-48.523,208.069,330.139
0.103,0.721,0.598,-38.879,219.849,321.472
0.054,0.886,0.595,-32.104,231.934,319.214
0.006,1.047,0.551,-27.527,248.047,314.148
-0.041,1.262,0.449,-28.259,266.602,305.603
-0.098,1.506,0.292,-32.471,283.325,293.762
-0.076,1.818,0.210,-47.791,294.922,278.564
-0.028,2.262,-0.011,-66.956,302.124,256.775
0.006,2.899,-0.347,-78.735,307.678,223.389
0.017,3.178,-0.561,-92.224,298.035,155.212
-0.015,2.800,-0.463,-98.999,280.396,63.843
-0.041,2.310,-0.704,-86.121,270.020,-10.376
-0.124,1.963,-1.254,-77.942,265.808,-47.607
-0.142,2.088,-1.803,-91.919,247.559,-63.110
-0.272,2.076,-2.081,-84.717,199.463,-91.003
-0.042,1.718,-1.594,-82.153,130.676,-133.789
0.499,1.565,-0.750,-96.497,66.223,-157.959
0.484,1.525,-0.228,-131.897,41.504,-172.607
0.199,1.590,-0.035,-173.828,59.814,-187.744
0.092,1.434,-0.182,-175.354,88.989,-223.328
0.050,1.025,-0.607,-152.832,113.586,-269.531
-0.097,0.750,-0.945,-144.226,117.493,-295.532
-0.102,0.623,-0.868,-150.757,93.811,-300.293
-0.077,0.711,-0.619,-158.813,66.040,-298.035
-0.080,0.822,-0.637,-177.917,59.509,-298.889
-0.134,0.658,-0.897,-204.712,62.927,-310.181
-0.137,0.433,-0.917,-220.154,49.866,-318.542
-0.192,0.229,-0.813,-219.482,29.114,-318.176
-0.123,-0.003,-0.896,-214.417,19.348,-315.063
-0.044,-0.325,-1.113,-197.021,12.390,-315.002
0.034,-0.633,-1.305,-174.500,-0.610,-315.369
0.065,-0.878,-1.392,-151.245,-21.484,-308.167
0.116,-0.863,-1.261,-141.785,-46.936,-288.269
0.148,-0.660,-1.072,-144.226,-63.965,-260.803
0.157,-0.539,-0.904,-141.663,-73.547,-243.530
0.155,-0.648,-0.818,-126.160,-77.637,-239.441
0.177,-0.918,-0.766,-104.187,-79.102,-231.201
0.170,-0.988,-0.803,-93.140,-76.233,-206.787
0.163,-0.537,-0.950,-98.328,-68.298,-169.189
0.129,-0.327,-1.010,-103.149,-70.190,-154.175
0.092,-0.372,-1.009,-97.351,-79.468,-161.621
0.074,-0.488,-1.065,-89.050,-88.318,-167.297
0.041,-0.637,-1.191,-76.843,-99.426,-169.800
0.017,-0.808,-1.231,-65.063,-119.812,-167.358
0.052,-0.877,-1.109,-48.828,-144.470,-159.668
0.076,-0.870,-0.870,-31.738,-166.992,-151.672
0.122,-0.993,-0.721,-17.822,-176.331,-147.522
0.182,-1.329,-0.641,-16.602,-173.889,-143.372
0.151,-1.427,-0.585,-34.363,-167.114,-124.023
0.170,-0.986,-0.583,-57.007,-159.668,-86.365
0.229,-0.754,-0.463,-64.087,-155.334,-68.604
0.207,-0.711,-0.381,-64.209,-154.053,-67.688
0.186,-0.806,-0.412,-64.941,-147.217,-67.139
0.231,-0.958,-0.486,-61.646,-143.921,-62.012
0.271,-1.050,-0.518,-56.824,-149.109,-50.232
0.286,-1.160,-0.586,-54.077,-157.898,-33.997
0.268,-1.257,-0.638,-52.551,-167.786,-17.273
0.256,-1.430,-0.577,-47.974,-182.129,-0.854
0.253,-1.503,-0.518,-46.387,-195.190,20.996
0.246,-1.405,-0.464,-43.762,-206.604,49.072
0.270,-1.302,-0.397,-28.076,-218.994,70.190
0.278,-1.245,-0.190,-10.071,-233.093,81.360
0.246,-1.409,-0.079,3.235,-237.000,85.266
0.249,-1.264,-0.010,7.507,-234.863,98.755
0.269,-0.954,0.137,7.751,-233.093,116.699
0.307,-0.819,0.298,8.179,-227.417,121.155
0.312,-0.741,0.394,10.864,-220.703,121.948
0.359,-0.686,0.507,20.691,-214.172,123.352
0.407,-0.711,0.666,34.058,-211.548,123.474
0.478,-0.855,0.847,42.297,-204.895,123.535
0.486,-1.066,0.963,43.823,-193.298,128.418
0.525,-1.177,1.075,34.485,-176.331,145.813
0.566,-1.151,1.174,23.621,-157.227,170.959
0.612,-1.050,1.203,14.587,-131.714,193.359
0.640,-0.893,1.172,6.592,-102.234,212.769
0.658,-0.708,1.135,-3.174,-72.327,226.440
0.683,-0.430,1.092,-8.789,-44.861,235.901
0.766,-0.114,1.118,-8.789,-21.790,238.525
0.803,0.238,1.122,-5.554,0.122,232.422
0.831,0.453,1.114,-3.479,22.095,214.722
0.867,0.538,1.050,1.160,43.030,189.026
0.914,0.654,0.832,-0.671,67.139,163.330
0.917,0.649,0.524,-5.432,86.609,135.925
0.917,0.563,0.220,-10.559,94.421,108.826
0.903,0.442,0.019,-16.174,90.942,88.623
0.937,0.291,-0.047,-25.269,78.918,74.524
0.982,0.157,0.014,-32.898,64.941,65.857
1.000,0.127,0.002,-36.926,57.251,62.927
1.020,0.073,-0.040,-38.879,53.955,59.998
1.025,0.063,-0.044,-37.537,48.828,57.434
1.026,0.097,-0.043,-32.532,44.067,56.396
1.026,0.150,-0.049,-24.475,39.429,53.650
1.021,0.228,-0.104,-16.113,36.011,49.316
1.011,0.232,-0.127,-9.155,31.555,42.603
1.001,0.210,-0.114,-4.456,24.780,35.706
0.993,0.236,-0.151,-1.343,19.836,31.738
0.995,0.257,-0.131,-0.366,13.367,27.649
1.000,0.255,-0.060,-0.122,6.897,22.400
1.006,0.225,-0.038,1.099,4.150,16.479
1.022,0.134,-0.044,4.333,4.578,10.681
1.022,0.014,0.038,1.343,2.197,7.080
1.014,0.025,0.007,-1.526,4.456,9.888
1.006,0.048,-0.028,-1.404,7.385,12.512
0.994,0.012,-0.069,-2.258,7.996,12.512
0.992,-0.004,-0.112,-3.723,7.019,14.221
0.998,0.019,-0.052,-7.019,2.686,17.700
0.996,0.069,0.001,-7.751,-0.183,20.264
1.001,0.052,0.022,-6.714,0.244,19.287
0.996,0.071,-0.002,-5.493,1.770,18.860
0.989,0.094,-0.022,-5.554,2.563,18.188
0.985,0.105,-0.038,-5.798,1.343,17.151

0.191,1.471,1.249,-27.405,237.488,312.439
0.117,1.746,1.088,-51.025,271.484,293.274
0.056,2.073,0.722,-79.590,307.373,267.517
0.025,2.467,0.344,-107.666,332.397,233.032
-0.034,2.886,-0.033,-134.399,344.360,182.739
-0.065,2.938,-0.407,-153.381,345.886,107.056
-0.146,2.426,-0.566,-140.991,332.703,19.470
-0.166,1.901,-0.696,-114.929,316.101,-47.119
-0.157,1.532,-0.855,-94.543,299.011,-84.167
-0.156,1.350,-1.094,-88.928,281.372,-97.900
-0.182,1.569,-1.442,-103.821,264.771,-103.516
-0.292,1.590,-1.596,-116.211,237.000,-123.352
-0.067,1.594,-1.666,-144.043,198.120,-148.254
0.206,1.783,-1.636,-173.401,152.893,-169.373
0.133,1.797,-1.211,-213.318,103.943,-199.280
-0.009,1.572,-0.482,-245.056,64.270,-241.638
-0.018,1.259,0.042,-255.432,58.960,-282.227
-0.016,1.068,0.024,-260.376,84.412,-310.852
-0.193,1.040,-0.416,-264.404,112.244,-327.209
-0.308,0.776,-0.811,-274.414,113.220,-346.985
-0.300,0.154,-0.928,-280.212,89.050,-371.277
-0.249,-0.574,-0.996,-267.029,63.171,-380.554
-0.150,-1.011,-1.114,-241.638,44.312,-362.793
0.053,-0.906,-1.100,-211.060,28.259,-320.862
0.081,-0.713,-1.041,-197.266,13.550,-285.889
0.127,-0.870,-1.187,-186.523,6.226,-275.146
0.170,-1.084,-1.249,-177.063,-7.263,-265.198
0.186,-1.115,-1.067,-180.054,-28.259,-242.187
0.163,-1.000,-0.887,-184.143,-40.466,-213.135
0.176,-0.807,-0.750,-175.354,-42.664,-189.819
0.133,-0.537,-0.673,-169.800,-41.260,-173.767
0.034,-0.445,-0.805,-156.738,-37.048,-167.603
0.002,-0.571,-0.973,-142.090,-37.842,-172.363
-0.031,-0.875,-1.105,-122.498,-51.636,-175.659
0.014,-1.130,-1.158,-101.318,-72.754,-164.429
0.023,-1.197,-1.058,-84.961,-95.886,-140.808
0.018,-1.076,-0.939,-83.313,-109.375,-117.920
0.028,-1.000,-0.925,-76.782,-112.183,-106.628
0.003,-0.965,-0.898,-69.885,-115.540,-101.196
-0.036,-0.975,-0.926,-65.430,-120.544,-96.863
-0.056,-1.082,-0.953,-65.430,-126.404,-91.248
-0.044,-1.173,-0.896,-69.092,-137.085,-81.482
-0.029,-1.227,-0.816,-70.862,-150.818,-65.857
-0.033,-1.262,-0.790,-69.824,-161.316,-47.791
-0.038,-1.347,-0.755,-65.552,-172.485,-29.602
-0.039,-1.454,-0.740,-56.824,-186.340,-10.803
0.002,-1.434,-0.681,-50.354,-196.289,10.864
0.025,-1.338,-0.584,-42.175,-208.740,31.738
0.042,-1.204,-0.473,-37.476,-216.187,49.072
0.045,-1.095,-0.374,-33.081,-221.863,61.768
0.072,-1.050,-0.290,-29.602,-224.365,70.251
0.092,-0.987,-0.224,-28.198,-224.915,78.003
0.097,-0.947,-0.204,-29.358,-222.717,85.876
0.150,-0.926,-0.164,-31.128,-221.558,92.590
0.220,-0.906,-0.057,-27.588,-222.778,98.877
0.284,-0.902,0.105,-23.193,-222.534,103.333
0.337,-0.907,0.163,-14.648,-215.637,106.079
0.395,-1.060,0.151,-1.221,-206.665,105.835
0.396,-1.254,0.201,10.864,-201.660,107.422
0.407,-1.346,0.275,22.461,-197.693,119.019
0.444,-1.324,0.376,29.968,-191.833,135.254
0.431,-1.237,0.471,32.532,-183.594,152.771
0.425,-1.208,0.555,36.072,-172.607,164.551
0.422,-1.088,0.705,39.795,-161.743,178.528
0.430,-0.884,0.806,40.100,-147.766,193.420
0.479,-0.598,0.847,39.551,-130.493,206.604
0.510,-0.354,0.889,35.217,-116.699,212.769
0.566,-0.199,0.869,32.166,-103.699,211.731
0.630,-0.188,0.869,25.452,-92.651,206.909
0.677,-0.288,0.911,9.888,-81.848,200.928
0.737,-0.335,0.994,2.930,-69.031,200.256
0.762,-0.351,1.013,2.686,-51.392,203.125
0.792,-0.372,0.929,0.671,-30.212,207.458
0.809,-0.347,0.920,-2.319,-14.648,213.257
0.827,-0.218,0.945,-2.869,-1.770,220.459
0.843,0.045,0.956,4.089,13.184,227.051
0.870,0.441,0.960,16.418,29.846,226.196
0.895,0.916,0.945,28.198,45.959,214.722
0.910,1.297,0.756,34.912,64.880,190.063
0.926,1.390,0.440,30.273,80.627,148.743
0.896,1.050,0.152,20.447,83.435,99.487
0.936,0.659,-0.037,15.686,75.256,64.941
0.990,0.470,-0.051,4.395,59.570,53.101
1.045,0.411,-0.014,-11.963,45.227,50.842
1.060,0.394,0.027,-20.630,36.255,47.852
1.070,0.373,0.042,-20.447,32.043,42.236
1.046,0.343,0.030,-13.428,29.907,35.767
1.031,0.379,-0.038,-4.822,29.358,31.067
1.027,0.388,-0.070,6.714,25.757,24.902
1.002,0.370,-0.058,17.761,19.836,17.273
0.997,0.421,-0.097,27.710,14.832,11.047
0.998,0.407,-0.076,33.142,11.414,4.028
0.983,0.336,-0.011,32.898,7.202,-2.319
0.985,0.323,-0.106,30.273,8.972,-5.249
0.981,0.195,-0.078,30.396,4.578,-10.925
1.000,0.098,-0.071,27.344,0.610,-11.902
0.996,0.024,-0.008,21.973,-2.686,-9.888
1.008,0.080,-0.071,16.663,-2.747,-4.578
1.001,0.120,0.011,14.221,-5.615,-1.587
0.999,0.118,0.013,8.606,-4.639,0.305
0.989,0.119,0.022,4.150,-2.197,1.038
0.981,0.174,-0.005,0.000,-1.526,2.380
0.979,0.181,-0.017,-2.930,-0.671,2.014
0.977,0.148,-0.003,-5.127,-1.282,-0.244
0.982,0.177,0.003,-7.446,-2.136,-0.061
0.999,0.229,-0.011,-6.165,-2.747,-1.099
1.001,0.224,0.007,-2.014,-4.333,-5.432
0.988,0.124,0.098,0.305,-5.310,-10.498
1.003,0.114,0.029,1.526,-2.625,-11.047
0.989,0.010,-0.017,8.484,-5.493,-16.418
0.992,0.077,-0.012,10.986,-7.690,-12.939
0.995,0.050,0.052,12.939,-12.817,-13.000
0.993,0.014,0.089,11.780,-12.146,-12.817
1.003,-0.004,0.068,9.705,-8.667,-10.498
0.992,-0.033,0.095,10.437,-10.010,-12.451
0.990,0.007,0.117,7.507,-8.789,-8.362
0.992,0.021,0.129,5.310,-7.019,-6.653
0.983,-0.001,0.102,2.808,-4.211,-5.859
0.979,-0.011,0.077,-0.366,-2.075,-4.395

0.859,-1.005,0.968,-64.514,-74.524,101.868
0.824,-1.008,0.908,-69.885,-48.889,126.038
0.764,-0.919,0.885,-78.857,-26.489,153.442
0.681,-0.752,0.846,-88.623,-5.615,183.838
0.603,-0.699,0.770,-96.130,15.503,209.534
0.529,-0.737,0.712,-101.440,32.898,233.704
0.465,-0.731,0.756,-99.060,47.119,262.085
0.405,-0.688,0.935,-87.952,57.495,292.908
0.317,-0.500,1.146,-68.359,78.247,325.867
0.201,-0.180,1.281,-45.593,105.225,356.934
0.064,0.294,1.331,-18.616,134.949,381.226
-0.002,0.806,1.255,-0.549,166.321,393.799
-0.037,1.173,1.250,5.310,192.871,389.832
-0.013,1.559,1.183,0.671,215.271,377.869
-0.010,1.910,1.023,-17.151,237.854,359.009
-0.061,1.927,0.853,-45.410,259.033,325.256
-0.150,1.649,0.689,-78.247,279.724,286.560
-0.244,1.524,0.317,-108.093,301.636,262.695
-0.299,1.551,-0.039,-125.671,314.453,250.732
-0.342,1.645,-0.349,-134.338,313.477,236.877
-0.343,1.862,-0.673,-128.235,305.420,216.370
-0.300,2.041,-0.875,-108.337,286.621,187.988
-0.224,2.134,-0.774,-81.360,257.141,150.452
-0.187,2.163,-0.503,-62.622,232.727,110.413
-0.162,2.157,-0.388,-57.617,223.633,70.740
-0.199,2.089,-0.412,-57.373,225.769,34.607
-0.290,1.909,-0.415,-59.570,230.835,0.000
-0.378,1.641,-0.677,-69.702,241.333,-26.062
-0.359,1.697,-1.212,-89.966,247.925,-28.320
-0.149,2.231,-1.910,-94.299,233.215,-33.752
-0.156,2.410,-2.028,-93.506,176.697,-70.435
-0.300,2.049,-1.558,-109.863,112.122,-124.695
-0.263,1.585,-0.754,-124.878,67.261,-170.166
-0.148,1.505,-0.439,-134.460,55.725,-198.364
-0.106,1.755,-0.697,-144.653,74.341,-218.689
-0.182,1.813,-0.914,-157.043,82.458,-256.714
-0.346,1.557,-0.762,-169.556,66.528,-309.387
-0.485,1.309,-0.535,-181.824,49.316,-354.004
-0.497,1.254,-0.609,-201.843,46.814,-382.874
-0.565,1.274,-0.898,-232.056,45.471,-405.396
-0.751,0.973,-0.845,-265.869,24.292,-432.983
-0.765,0.579,-0.458,-285.950,-9.399,-454.346
-0.618,0.219,-0.275,-298.889,-29.053,-461.487
-0.581,-0.083,-0.599,-299.866,-35.889,-462.585
-0.527,-0.268,-1.080,-294.128,-46.692,-448.792
-0.418,-0.541,-1.200,-298.706,-79.102,-430.664
-0.388,-0.994,-0.965,-295.654,-120.728,-417.969
-0.350,-1.486,-0.670,-296.570,-141.052,-395.569
-0.184,-1.848,-0.577,-281.250,-141.052,-355.286
-0.027,-1.728,-0.467,-241.333,-141.785,-297.729
0.011,-1.349,-0.317,-213.257,-133.972,-240.051
0.087,-1.134,-0.182,-194.214,-122.009,-210.693
0.105,-0.974,-0.123,-172.058,-103.271,-196.777
0.050,-0.958,-0.204,-161.987,-80.017,-188.171
0.049,-1.184,-0.329,-147.156,-63.232,-183.472
0.067,-1.430,-0.424,-132.324,-61.951,-169.861
0.078,-1.441,-0.531,-118.713,-59.265,-137.939
0.060,-1.314,-0.746,-113.831,-65.979,-103.455
0.085,-1.276,-0.745,-105.835,-82.214,-84.167
0.150,-1.347,-0.584,-91.492,-103.394,-74.158
0.162,-1.343,-0.549,-83.496,-114.136,-59.448
0.160,-1.306,-0.547,-79.041,-116.943,-43.396
0.133,-1.339,-0.517,-66.711,-123.840,-31.982
0.102,-1.369,-0.544,-57.434,-133.118,-18.738
0.097,-1.382,-0.488,-53.772,-142.273,-2.258
0.101,-1.428,-0.352,-48.462,-156.128,14.709
0.141,-1.388,-0.220,-41.382,-169.189,34.180
0.155,-1.365,-0.118,-29.785,-172.729,50.476
0.200,-1.393,-0.032,-21.973,-175.415,64.331
0.236,-1.433,0.085,-15.869,-177.429,77.820
0.271,-1.441,0.122,-9.399,-170.593,94.177
0.278,-1.497,0.122,-4.639,-165.527,110.962
0.304,-1.533,0.167,-1.099,-160.522,130.066
0.338,-1.453,0.221,1.282,-155.762,153.992
0.346,-1.328,0.243,2.808,-149.841,174.805
0.398,-1.244,0.306,6.897,-145.569,189.087
0.396,-1.213,0.378,11.353,-139.832,200.195
0.423,-1.048,0.409,16.785,-131.714,216.797
0.445,-0.900,0.471,29.297,-124.939,225.830
0.466,-0.857,0.567,35.583,-115.906,231.750
0.434,-0.831,0.507,36.926,-100.220,240.479
0.439,-0.687,0.340,37.781,-86.609,253.784
0.427,-0.520,0.363,44.128,-87.769,263.672
0.422,-0.299,0.394,42.725,-89.783,270.142
0.472,-0.099,0.450,32.776,-90.759,274.048
0.565,0.134,0.596,22.461,-93.018,276.184
0.653,0.379,0.721,17.273,-88.989,270.935
0.741,0.638,0.659,21.790,-76.050,257.874
0.800,0.733,0.573,26.794,-63.477,237.183
0.836,0.629,0.536,25.757,-55.664,211.243
0.885,0.635,0.584,26.855,-50.537,190.674
0.962,0.785,0.691,38.940,-45.532,173.767
1.014,0.939,0.816,47.791,-37.720,152.527
1.041,1.064,0.786,57.129,-22.583,126.221
1.022,1.082,0.571,58.777,-3.845,97.107
0.998,0.963,0.223,54.199,10.620,67.749
0.986,0.800,-0.010,44.067,10.559,45.166
0.999,0.719,-0.017,29.968,-1.892,31.372
1.050,0.672,0.096,23.315,-15.442,20.569
1.066,0.527,0.291,18.311,-22.461,8.484
1.066,0.355,0.413,11.658,-19.287,0.122
1.069,0.302,0.373,13.428,-8.850,-1.221
1.055,0.297,0.281,18.738,0.000,-1.587
1.038,0.280,0.213,24.048,5.249,-3.357
1.020,0.278,0.200,30.701,5.920,-6.165
1.007,0.260,0.184,37.415,7.019,-9.644
0.986,0.205,0.165,42.725,6.714,-13.855
0.994,0.210,0.125,45.166,6.775,-15.381
0.979,0.232,0.137,45.166,5.615,-15.564
0.986,0.255,0.093,41.687,6.165,-16.479
0.997,0.161,0.136,37.537,5.127,-19.409
0.984,0.078,0.161,29.297,4.822,-20.447
0.991,0.111,0.077,23.376,7.996,-15.930
1.000,0.172,0.029,22.400,7.324,-14.038
0.989,0.081,0.075,18.311,3.174,-17.212
0.983,-0.027,0.095,15.869,0.977,-18.555
0.992,-0.020,0.091,18.250,-0.122,-15.808
0.987,0.055,0.064,21.179,-0.916,-11.108
0.971,-0.037,0.131,19.714,-2.747,-10.742

0.720,-1.328,0.888,-47.668,-11.841,167.908
0.656,-1.291,1.014,-74.341,7.812,214.355
0.524,-1.117,1.014,-93.445,32.959,259.399
0.413,-0.792,0.906,-91.858,59.570,300.232
0.337,-0.439,0.894,-75.439,75.806,329.468
0.269,-0.119,1.016,-46.265,84.045,344.482
0.275,0.146,1.149,-12.207,94.482,348.816
0.256,0.374,1.209,19.958,109.558,346.619
0.267,0.542,1.285,39.795,128.723,341.248
0.291,0.723,1.502,42.480,148.987,335.693
0.307,1.042,1.513,25.818,182.129,333.618
0.252,1.272,1.268,-7.690,224.121,327.454
0.141,1.316,0.960,-57.617,259.888,313.232
-0.017,1.314,0.725,-110.840,285.828,298.157
-0.118,1.432,0.492,-160.339,306.396,285.156
-0.226,1.616,0.235,-185.181,323.975,267.578
-0.322,1.872,-0.122,-179.932,336.670,239.807
-0.363,2.214,-0.686,-152.161,340.393,201.111
-0.337,2.522,-0.931,-113.281,318.542,151.306
-0.266,2.612,-0.893,-75.867,280.762,89.783
-0.223,2.470,-0.810,-49.255,251.892,25.574
-0.192,2.251,-0.801,-35.278,232.117,-28.015
-0.259,1.932,-0.924,-27.771,223.938,-68.604
-0.297,1.708,-1.264,-35.828,216.248,-93.445
-0.319,1.674,-1.576,-57.617,203.064,-105.530
-0.280,1.757,-1.714,-77.637,178.955,-117.920
-0.309,1.758,-1.846,-106.384,153.625,-134.155
-0.297,1.438,-1.474,-152.832,116.638,-151.245
-0.312,1.414,-0.825,-189.514,78.735,-160.278
-0.201,1.415,-0.342,-197.266,61.829,-177.490
0.048,1.554,-0.242,-197.693,67.139,-199.768
-0.005,1.697,-0.338,-205.261,77.759,-221.680
-0.092,1.483,-0.340,-227.295,78.064,-256.653
-0.127,1.245,-0.284,-238.281,70.313,-292.480
-0.215,1.123,-0.341,-237.915,64.880,-319.641
-0.290,0.974,-0.551,-239.807,66.345,-342.285
-0.302,0.625,-0.822,-247.620,61.523,-366.577
-0.307,0.254,-1.168,-247.131,45.349,-384.460
-0.296,-0.423,-1.194,-245.239,17.273,-393.250
-0.181,-1.109,-0.894,-241.028,-14.404,-387.634
-0.058,-1.097,-0.752,-236.572,-28.015,-344.055
0.057,-0.855,-0.927,-228.027,-17.151,-290.527
0.144,-0.927,-1.140,-218.628,-18.250,-265.869
0.189,-0.995,-1.093,-218.079,-31.982,-249.268
0.196,-1.020,-0.946,-221.680,-51.758,-228.027
0.183,-1.045,-0.945,-207.458,-60.181,-207.153
0.183,-0.988,-0.951,-190.430,-65.857,-185.791
0.176,-0.820,-0.900,-172.485,-81.909,-163.452
0.170,-0.698,-0.812,-159.668,-97.168,-146.851
0.172,-0.584,-0.767,-150.391,-107.666,-138.428
0.194,-0.550,-0.662,-137.207,-117.065,-135.437
0.152,-0.640,-0.564,-129.089,-122.864,-136.536
0.109,-0.768,-0.681,-124.878,-119.202,-134.705
0.041,-0.893,-0.866,-123.840,-118.896,-127.747
0.045,-1.100,-0.915,-124.939,-130.920,-118.896
0.036,-1.204,-0.854,-120.300,-150.146,-103.027
0.055,-1.248,-0.741,-114.868,-168.213,-83.374
0.090,-1.236,-0.634,-108.154,-179.565,-65.308
0.106,-1.219,-0.553,-99.304,-187.561,-49.683
0.109,-1.298,-0.477,-82.764,-196.594,-38.940
0.113,-1.304,-0.377,-65.613,-202.820,-27.161
0.128,-1.238,-0.302,-50.781,-208.008,-12.634
0.114,-1.211,-0.236,-46.326,-209.290,-1.465
0.112,-1.120,-0.207,-48.523,-207.581,10.254
0.158,-1.059,-0.151,-49.316,-206.360,21.240
0.184,-1.122,-0.024,-46.021,-207.397,27.222
0.229,-1.188,-0.000,-37.292,-205.261,36.377
0.266,-1.279,0.054,-28.748,-204.224,47.058
0.327,-1.361,0.140,-20.996,-202.332,60.608
0.357,-1.321,0.203,-14.404,-198.303,76.721
0.356,-1.496,0.263,-10.986,-191.895,87.280
0.362,-1.542,0.362,-9.033,-183.594,106.079
0.365,-1.533,0.393,-7.996,-174.316,126.892
0.370,-1.425,0.371,-6.714,-161.560,148.376
0.397,-1.270,0.444,-2.502,-153.259,167.603
0.394,-1.138,0.462,1.099,-143.738,182.861
0.387,-1.004,0.510,8.362,-133.606,194.824
0.412,-0.854,0.503,12.756,-122.803,205.933
0.427,-0.660,0.449,15.442,-111.450,216.309
0.459,-0.412,0.496,22.827,-106.079,220.032
0.492,-0.094,0.570,26.794,-103.210,219.604
0.543,0.203,0.581,26.123,-98.755,212.341
0.633,0.332,0.635,23.987,-95.337,196.655
0.745,0.336,0.662,26.428,-91.431,173.584
0.811,0.254,0.704,34.546,-86.182,151.062
0.844,-0.044,0.697,38.513,-79.224,129.639
0.884,-0.359,0.640,40.771,-70.923,118.042
0.898,-0.619,0.627,34.790,-63.049,119.934
0.878,-0.605,0.540,21.179,-51.941,135.681
0.889,-0.321,0.620,12.695,-43.762,157.776
0.894,0.055,0.756,7.996,-37.781,169.861
0.919,0.400,0.731,5.981,-22.705,167.908
0.940,0.564,0.679,5.737,-9.705,152.100
0.936,0.611,0.636,4.333,-1.343,130.310
0.937,0.604,0.551,4.150,5.188,109.924
0.974,0.522,0.452,6.836,8.118,90.332
0.992,0.408,0.436,11.353,6.897,74.219
1.009,0.273,0.446,12.817,6.287,63.232
1.015,0.107,0.451,10.498,10.193,56.763
0.995,0.071,0.350,4.944,16.296,56.885
0.990,0.150,0.196,1.038,21.362,59.998
0.975,0.163,0.185,-5.310,20.264,59.265
0.977,0.215,0.161,-11.780,18.005,58.655
0.988,0.279,0.201,-12.512,11.841,57.007
0.992,0.380,0.255,-11.963,8.911,53.467
0.982,0.438,0.200,-10.010,8.423,46.753
0.991,0.450,0.165,-6.042,7.324,36.987
0.988,0.400,0.180,-3.906,2.258,27.405
0.998,0.362,0.171,-2.136,0.244,19.409
1.000,0.244,0.220,-0.244,-2.319,12.024
0.993,0.121,0.249,-0.366,-2.808,7.141
0.985,0.063,0.238,-1.770,-0.488,7.324
0.986,0.026,0.229,-3.235,2.014,9.583
0.997,0.066,0.211,-3.235,3.235,12.512
0.994,0.116,0.221,-3.601,4.883,14.587
0.973,0.167,0.192,-5.615,4.883,14.465
0.975,0.203,0.148,-5.188,5.249,12.878
0.974,0.175,0.219,-5.066,4.333,10.315
0.974,0.201,0.248,-6.042,2.991,8.911

0.904,-1.164,0.515,-28.442,28.259,85.022
0.857,-1.128,0.510,-40.955,41.077,118.103
0.792,-1.053,0.452,-44.983,50.232,150.330
0.713,-0.954,0.404,-45.959,59.204,182.983
0.625,-0.841,0.335,-44.128,62.195,213.501
0.534,-0.731,0.279,-38.086,63.843,241.516
0.462,-0.625,0.299,-32.898,58.838,268.494
0.396,-0.485,0.400,-28.992,56.946,295.715
0.330,-0.356,0.629,-22.095,58.655,319.092
0.253,-0.224,0.759,-18.127,72.876,340.515
0.134,-0.081,0.758,-13.855,95.520,360.779
0.058,0.198,0.880,-6.775,114.197,379.761
-0.014,0.490,1.010,-3.601,131.958,393.005
-0.060,0.676,1.007,-11.475,157.593,397.766
-0.133,0.749,0.994,-22.705,184.509,397.400
-0.172,0.924,1.034,-40.588,209.778,398.254
-0.240,1.233,0.832,-67.261,239.807,401.367
-0.311,1.428,0.408,-101.563,269.531,395.325
-0.343,1.558,0.009,-130.798,285.522,378.052
-0.369,1.843,-0.285,-144.348,288.025,358.154
-0.344,2.354,-0.549,-141.479,282.593,330.750
-0.239,2.800,-0.637,-133.484,267.029,284.058
-0.064,3.016,-0.477,-138.672,250.916,218.628
0.014,2.847,-0.269,-153.381,235.840,142.639
0.026,2.475,-0.254,-158.691,235.291,75.439
-0.083,2.238,-0.548,-161.743,241.272,26.428
-0.191,2.149,-1.033,-157.532,240.234,-12.207
-0.263,2.170,-1.380,-143.982,219.910,-48.767
-0.321,2.135,-1.306,-122.620,181.580,-87.280
-0.331,2.044,-1.054,-113.220,146.118,-124.817
-0.279,1.866,-0.886,-115.662,123.291,-156.921
-0.187,2.068,-0.832,-119.934,100.830,-182.678
-0.109,2.023,-0.674,-112.183,70.557,-227.600
-0.274,1.706,-0.411,-144.531,52.063,-276.184
-0.254,1.382,-0.171,-198.547,48.950,-309.998
-0.375,1.209,-0.095,-230.530,53.406,-326.965
-0.429,1.176,-0.244,-262.451,62.988,-336.914
-0.469,1.200,-0.127,-301.575,68.176,-350.159
-0.569,0.899,-0.192,-332.520,64.819,-371.887
-0.608,0.633,-0.406,-338.257,64.575,-379.578
-0.567,0.375,-0.577,-348.389,58.044,-374.878
-0.527,0.024,-0.664,-344.543,39.490,-373.230
-0.460,-0.409,-0.636,-326.782,19.226,-372.925
-0.321,-0.766,-0.792,-296.997,5.676,-362.793
-0.255,-1.001,-1.149,-272.156,3.235,-342.529
-0.213,-1.333,-1.573,-244.385,-11.108,-321.045
-0.155,-1.551,-1.751,-217.163,-40.283,-293.335
-0.066,-1.413,-1.468,-197.388,-79.895,-250.732
-0.034,-0.947,-1.015,-182.190,-118.469,-206.360
0.040,-0.548,-0.710,-165.222,-130.798,-179.077
0.063,-0.421,-0.611,-146.301,-126.465,-174.683
0.033,-0.333,-0.778,-131.836,-119.934,-176.819
-0.011,-0.259,-0.972,-123.291,-118.958,-177.063
-0.085,-0.364,-1.184,-109.985,-130.676,-184.143
-0.108,-0.607,-1.176,-94.360,-152.405,-193.542
-0.092,-0.805,-0.957,-77.515,-182.739,-198.059
-0.035,-0.855,-0.805,-57.922,-197.449,-194.641
-0.014,-0.783,-0.718,-34.790,-201.050,-189.270
0.001,-0.658,-0.680,-16.541,-201.111,-186.340
-0.053,-0.688,-0.738,-0.671,-195.862,-191.589
0.037,-1.241,-0.530,0.488,-196.411,-202.271
0.072,-1.516,-0.250,3.296,-192.871,-192.444
0.050,-1.061,-0.633,5.798,-164.673,-150.269
0.074,-0.784,-0.849,4.395,-158.936,-130.310
0.101,-0.595,-0.570,13.367,-183.228,-134.521
0.113,-0.467,-0.425,19.470,-197.083,-139.771
0.073,-0.617,-0.515,32.776,-192.261,-153.931
0.036,-1.042,-0.537,41.931,-198.242,-166.321
0.006,-1.461,-0.471,32.288,-208.130,-162.903
0.028,-1.490,-0.614,15.808,-212.341,-133.606
0.028,-1.468,-0.648,-3.845,-226.746,-99.915
0.073,-1.701,-0.584,-27.649,-242.310,-73.181
0.063,-1.844,-0.538,-40.527,-255.737,-41.687
0.052,-1.867,-0.569,-53.406,-274.231,-0.305
0.094,-1.948,-0.400,-62.744,-295.349,37.231
0.109,-1.902,-0.071,-67.993,-313.782,76.782
0.179,-1.828,0.133,-58.899,-313.171,112.549
0.139,-1.826,0.191,-44.067,-301.392,140.137
0.099,-1.870,0.075,-31.677,-287.842,166.748
0.055,-1.860,0.125,-28.442,-285.583,197.571
0.026,-1.711,0.318,-27.893,-286.926,231.567
0.047,-1.299,0.510,-23.743,-284.607,262.695
0.008,-1.070,0.649,-14.160,-273.804,276.245
0.043,-0.741,0.723,-0.793,-259.216,283.325
0.072,-0.333,0.850,15.259,-241.150,288.147
0.119,-0.133,0.957,15.564,-221.313,281.738
0.210,0.203,1.096,15.686,-206.970,273.499
0.369,0.567,1.124,22.034,-189.575,263.062
0.518,0.410,1.123,24.109,-167.480,230.652
0.626,0.022,1.122,16.724,-145.874,196.533
0.727,-0.083,1.094,-0.305,-124.451,185.608
0.796,-0.078,1.057,-15.625,-102.234,187.012
0.843,-0.177,1.037,-33.997,-80.505,183.716
0.830,-0.161,0.780,-45.898,-54.321,182.190
0.795,-0.072,0.486,-53.101,-33.020,183.472
0.766,-0.159,0.544,-61.157,-28.381,177.612
0.757,-0.006,0.736,-60.669,-24.658,173.645
0.784,0.619,0.757,-49.072,-12.634,173.889
0.850,1.198,0.673,-34.607,0.549,154.419
0.933,1.283,0.804,-21.362,6.775,110.046
0.969,1.049,0.930,-15.137,15.747,64.209
0.956,0.731,0.798,-17.029,35.400,32.776
0.960,0.243,0.625,-26.978,50.232,6.348
0.958,0.015,0.603,-38.818,56.274,0.854
0.958,0.006,0.478,-53.650,62.622,8.789
0.911,-0.096,0.298,-71.533,68.359,13.794
0.894,-0.174,0.145,-89.722,69.397,18.127
0.912,-0.036,0.172,-98.938,61.279,28.748
0.943,0.261,0.278,-96.680,52.979,36.316
0.949,0.376,0.368,-85.144,49.194,27.283
0.939,0.309,0.316,-75.928,51.941,8.972
0.936,0.312,0.299,-64.453,51.392,1.160
0.922,0.214,0.223,-55.176,49.866,-9.583
0.913,0.081,0.103,-52.002,49.377,-17.029
0.906,-0.033,0.027,-52.063,44.067,-19.287
0.902,-0.074,-0.027,-54.260,36.072,-16.235
0.931,-0.107,-0.014,-56.946,27.466,-11.597
0.945,-0.145,0.116,-59.143,18.005,-7.019
0.967,-0.057,0.171,-56.763,12.878,-1.343

0.331,1.068,1.522,-62.195,152.405,358.276
0.258,1.063,1.266,-70.923,198.914,340.576
0.153,0.967,1.105,-83.496,233.765,321.167
0.088,0.967,0.923,-101.807,266.052,312.073
-0.020,1.022,0.688,-121.399,296.509,304.626
-0.060,1.053,0.611,-147.278,321.228,294.373
-0.070,1.212,0.713,-177.063,340.149,282.227
-0.111,1.619,0.633,-217.529,369.446,270.935
-0.152,1.952,0.272,-273.010,405.945,245.850
-0.235,2.259,-0.288,-326.050,433.960,202.209
-0.264,2.493,-1.021,-355.957,434.937,143.555
-0.244,2.554,-1.617,-369.690,404.175,76.172
-0.120,2.387,-1.571,-384.155,335.815,7.629
-0.233,2.169,-1.511,-401.733,269.714,-51.392
-0.418,2.129,-1.815,-414.734,227.844,-99.792
-0.349,2.340,-1.383,-411.438,162.415,-145.142
-0.311,2.167,-0.305,-423.279,89.294,-196.655
-0.322,1.753,0.681,-463.318,59.387,-242.065
-0.426,1.463,0.903,-484.009,73.120,-278.381
-0.613,1.252,0.464,-479.370,102.600,-314.819
-0.807,0.509,-0.208,-479.797,121.460,-356.689
-0.842,-0.390,-0.711,-460.632,105.774,-387.573
-0.743,-1.129,-0.931,-431.274,69.580,-386.353
-0.542,-1.842,-0.731,-413.757,35.889,-362.244
-0.302,-2.198,-0.336,-377.625,11.719,-319.702
-0.080,-2.082,-0.329,-326.904,18.372,-263.916
0.000,-1.810,-0.711,-276.062,40.344,-218.201
0.030,-1.598,-0.923,-231.934,51.514,-192.566
-0.062,-1.096,-1.040,-179.443,46.204,-176.025
-0.121,-0.568,-1.106,-150.024,34.119,-166.870
-0.269,-0.190,-1.282,-126.831,21.240,-169.312
-0.408,0.075,-1.536,-122.559,-4.089,-179.993
-0.484,0.004,-1.536,-140.076,-39.917,-200.317
-0.621,-0.502,-1.507,-134.705,-84.351,-226.929
-0.779,-0.912,-1.855,-103.149,-116.638,-243.835
-0.757,-1.424,-2.057,-63.660,-154.297,-242.432
-0.987,-1.912,-1.882,-26.611,-207.336,-230.469
-0.951,-1.344,-2.096,-11.658,-240.479,-181.335
-0.922,-0.704,-1.945,0.427,-280.762,-144.836
-0.964,-0.633,-1.629,10.681,-323.975,-156.616
-0.957,-0.628,-1.654,11.719,-351.562,-172.729
-0.960,-0.703,-1.488,13.062,-388.367,-179.626
-0.983,-0.740,-1.099,16.296,-426.514,-186.401
-0.948,-0.528,-1.101,13.550,-444.031,-183.289
-0.985,-0.458,-1.054,15.808,-464.417,-191.406
-1.035,-0.799,-0.962,23.987,-493.530,-212.280
-1.079,-1.520,-0.638,19.409,-519.348,-224.121
-1.090,-2.045,-0.479,-0.610,-531.067,-199.402
-1.027,-2.431,-0.339,-36.865,-532.349,-145.142
-0.941,-2.512,-0.107,-70.740,-538.879,-76.172
-0.782,-2.282,0.375,-63.782,-544.922,-7.629
-0.548,-2.459,1.243,-49.500,-541.443,42.664
-0.332,-2.792,1.626,-29.236,-500.000,87.463
-0.213,-2.930,1.494,-9.583,-433.716,144.897
-0.163,-2.853,1.526,-2.319,-380.676,209.900
-0.129,-2.440,1.574,-3.479,-334.778,274.658
-0.122,-1.842,1.497,-7.263,-286.011,330.139
-0.109,-1.237,1.400,-11.780,-238.892,367.737
-0.077,-0.685,1.559,-11.658,-203.247,385.986
0.040,0.049,1.732,-8.911,-164.551,391.724
0.244,0.761,1.643,-0.305,-115.845,376.038
0.442,0.970,1.495,9.094,-69.580,329.712
0.608,0.792,1.186,5.615,-32.227,279.236
0.717,0.360,1.016,-7.202,-10.559,236.145
0.752,-0.004,0.868,-25.024,5.737,212.952
0.813,-0.272,0.696,-51.758,26.123,209.412
0.873,-0.207,0.624,-74.585,44.434,216.675
0.904,0.035,0.579,-84.473,62.134,226.074
0.904,0.329,0.521,-87.524,80.627,224.792
0.858,0.526,0.241,-83.130,97.595,210.327
0.787,0.593,-0.171,-74.341,103.088,187.683
0.742,0.646,-0.552,-72.449,95.276,164.612
0.761,0.683,-0.726,-81.055,71.289,143.677
0.831,0.860,-0.620,-84.595,40.588,123.413
0.933,0.635,-0.405,-82.764,14.282,94.299
1.000,0.549,0.009,-74.402,-9.583,70.251
1.022,0.469,0.057,-48.828,-9.399,51.147
1.003,0.324,-0.177,-22.156,-2.686,32.776
0.976,0.057,-0.328,-5.615,-3.540,18.738
0.969,0.006,-0.284,4.150,-18.738,17.151
1.029,0.108,-0.126,12.634,-29.907,21.790
1.032,0.104,0.085,18.311,-36.316,21.118
1.018,0.039,0.170,19.775,-31.555,18.494
1.015,0.182,0.099,21.362,-23.315,19.958
0.997,0.239,0.123,19.653,-19.653,18.616
0.980,0.194,0.160,14.465,-18.433,13.123
0.986,0.214,0.160,9.583,-15.259,10.498
1.000,0.254,0.189,6.653,-12.817,8.911
1.008,0.213,0.230,4.700,-10.681,4.028
1.001,0.167,0.147,4.578,-4.578,0.122
0.995,0.133,0.024,6.226,-1.038,-1.709
0.993,0.100,-0.003,8.789,-3.296,-2.197
0.994,0.032,0.033,9.766,-6.836,-2.136
0.990,0.025,0.057,6.531,-7.751,0.000
1.000,0.084,0.035,3.784,-7.141,3.784
0.998,0.112,0.048,1.953,-8.118,4.578
0.996,0.097,0.101,0.488,-9.888,3.479
0.992,0.122,0.094,0.122,-9.155,3.235
0.992,0.117,0.060,1.160,-7.141,2.197
0.997,0.114,0.072,2.136,-7.751,0.244
0.994,0.190,0.090,5.005,-7.385,-0.488
0.989,0.175,0.082,7.812,-6.653,-3.906
0.984,0.134,0.074,8.728,-7.446,-7.996
0.987,0.067,0.108,8.362,-7.690,-10.376
0.996,-0.008,0.132,7.690,-7.874,-10.742
0.992,-0.039,0.119,5.493,-6.592,-8.667
0.984,-0.043,0.063,3.601,-3.601,-5.249
0.987,-0.019,0.092,3.906,-5.981,-2.686
0.989,-0.016,0.126,5.249,-7.690,-2.014
0.983,-0.023,0.111,7.202,-4.822,-1.099
0.984,-0.040,0.110,7.751,-4.578,0.305
0.994,0.071,0.114,8.606,-5.066,2.930
0.987,0.127,0.137,7.751,-3.662,2.991
0.978,0.083,0.142,6.165,-2.441,-1.221
0.974,0.077,0.103,6.409,-0.793,-2.380
0.962,0.037,0.074,5.127,0.366,-3.235
0.969,0.005,0.067,2.502,-1.404,-3.296
0.980,0.039,0.044,3.174,-2.075,-2.258
0.986,0.002,0.066,3.052,-3.113,-2.502

-0.337,2.952,-0.539,-242.798,369.812,235.779
-0.248,3.363,-0.727,-254.150,361.572,160.828
-0.227,3.269,-0.838,-261.902,339.111,66.772
-0.288,2.608,-0.875,-250.977,309.570,-30.212
-0.431,2.288,-0.941,-256.836,287.109,-93.750
-0.631,2.214,-1.630,-286.621,278.992,-133.911
-0.743,2.240,-1.844,-298.645,230.652,-176.880
-0.779,2.267,-1.559,-291.443,153.931,-231.995
-0.822,2.229,-1.014,-283.569,93.018,-288.147
-0.720,1.828,-0.136,-268.921,47.363,-351.257
-0.754,1.275,0.501,-262.390,31.677,-394.226
-0.873,0.876,0.637,-300.964,56.885,-393.677
-0.923,0.832,0.273,-341.858,89.050,-377.747
-0.904,0.573,-0.079,-356.079,98.755,-379.089
-0.910,-0.020,-0.389,-369.629,94.055,-388.184
-0.798,-0.513,-0.585,-388.794,82.397,-378.418
-0.628,-0.875,-0.634,-383.789,63.232,-350.586
-0.463,-1.084,-0.744,-374.817,47.180,-315.613
-0.333,-1.321,-0.799,-365.356,32.593,-284.607
-0.124,-1.444,-0.748,-344.910,21.118,-254.944
-0.031,-1.294,-0.859,-311.768,16.724,-223.511
0.026,-1.131,-1.177,-270.996,13.428,-204.163
0.164,-1.173,-0.895,-240.051,0.793,-194.580
-0.008,-1.001,-0.778,-213.318,-5.737,-181.213
-0.095,-0.641,-1.142,-181.458,4.211,-163.574
-0.193,-0.293,-1.328,-160.461,-1.770,-153.137
-0.307,-0.255,-1.365,-145.081,-32.043,-160.461
-0.427,-0.277,-1.603,-137.817,-59.570,-172.729
-0.565,-0.443,-1.823,-127.136,-92.468,-187.988
-0.642,-0.759,-1.904,-100.464,-139.160,-208.313
-0.703,-0.890,-1.838,-58.228,-190.002,-219.604
-0.779,-0.696,-1.781,-23.010,-232.971,-218.323
-0.830,-0.587,-1.766,0.427,-267.761,-222.839
-0.842,-0.911,-1.596,12.085,-300.598,-239.136
-0.859,-1.069,-1.394,10.315,-326.599,-238.342
-0.764,-0.802,-1.327,7.446,-340.881,-213.562
-0.748,-0.592,-1.115,7.996,-358.582,-200.500
-0.782,-0.590,-0.967,4.517,-370.239,-205.933
-0.805,-0.764,-0.969,6.348,-372.192,-215.454
-0.799,-0.981,-0.991,-1.160,-380.127,-215.454
-0.874,-1.178,-0.986,-10.193,-399.841,-207.581
-0.806,-1.254,-0.747,-28.137,-429.871,-185.974
-0.680,-1.515,-0.216,-40.649,-455.139,-163.330
-0.509,-1.349,0.282,-50.476,-457.336,-135.437
-0.390,-1.032,0.381,-42.358,-425.598,-112.732
-0.392,-1.049,0.096,-26.794,-387.756,-111.877
-0.389,-1.370,0.010,-23.071,-373.779,-111.633
-0.349,-1.578,0.199,-34.851,-375.793,-92.224
-0.251,-1.650,0.334,-53.772,-372.253,-57.556
-0.147,-2.049,0.505,-73.792,-360.840,-25.208
-0.074,-2.487,0.505,-83.740,-342.041,12.634
-0.051,-2.784,0.542,-78.796,-320.862,67.078
-0.021,-2.849,0.745,-74.463,-304.993,130.188
-0.008,-2.801,0.889,-64.087,-281.555,191.223
-0.052,-2.531,0.858,-57.251,-248.169,249.023
-0.110,-2.120,0.767,-61.096,-214.722,301.819
-0.139,-1.708,0.734,-66.833,-188.477,343.750
-0.174,-1.337,0.737,-63.354,-165.405,371.094
-0.208,-1.118,0.619,-63.660,-142.090,385.010
-0.180,-0.837,0.604,-64.209,-125.977,397.156
-0.210,-0.574,0.591,-62.195,-115.479,405.029
-0.174,-0.479,0.446,-69.763,-100.830,405.640
-0.110,-0.342,0.563,-81.238,-96.008,408.325
-0.024,-0.004,0.735,-86.060,-88.440,415.771
0.141,0.306,0.983,-79.102,-75.378,414.673
0.280,0.651,1.253,-67.688,-57.678,398.865
0.455,1.161,1.266,-59.143,-28.870,377.991
0.642,1.756,1.055,-49.683,2.991,349.487
0.802,1.992,0.927,-47.607,26.855,295.837
0.852,1.666,0.810,-65.552,49.255,228.149
0.843,1.042,0.453,-92.529,74.829,166.870
0.835,0.604,0.122,-110.535,86.548,134.827
0.809,0.603,-0.243,-118.469,83.069,126.526
0.810,0.666,-0.526,-124.817,69.397,121.704
0.854,0.619,-0.370,-139.282,43.335,111.877
0.911,0.568,-0.070,-140.381,18.738,100.525
0.985,0.768,0.184,-125.854,6.592,93.872
1.012,0.936,0.328,-106.262,8.423,80.444
0.995,1.032,0.116,-82.825,20.264,56.335
0.948,0.872,-0.066,-57.129,25.208,27.222
0.917,0.634,-0.123,-36.255,16.907,3.174
0.920,0.562,-0.166,-18.311,6.653,-6.470
0.928,0.442,-0.133,-4.639,-3.906,-13.916
0.956,0.284,0.025,1.587,-13.306,-19.287
0.972,0.318,0.160,1.709,-16.724,-17.273
0.966,0.362,0.110,3.723,-11.292,-15.381
0.964,0.296,0.079,4.761,-9.338,-17.883
0.954,0.199,0.132,3.235,-9.949,-18.738
0.960,0.223,0.145,1.160,-8.850,-14.526
0.962,0.275,0.182,1.709,-7.080,-10.986
0.958,0.275,0.207,3.784,-5.676,-11.719
0.948,0.274,0.178,5.127,-3.845,-12.939
0.939,0.222,0.099,6.897,-1.465,-14.709
0.943,0.122,0.082,9.827,-3.296,-15.381
0.951,0.125,0.145,9.094,-7.996,-12.817
0.961,0.234,0.158,6.653,-7.751,-7.935
0.959,0.286,0.154,8.118,-6.470,-8.057
0.961,0.229,0.147,8.423,-6.287,-12.146
0.958,0.242,0.120,8.301,-6.042,-13.550
0.960,0.236,0.168,10.010,-7.874,-14.832
0.965,0.189,0.205,11.658,-8.240,-17.761
0.964,0.153,0.190,13.184,-7.141,-18.799
0.956,0.138,0.178,12.634,-6.409,-17.883
0.965,0.087,0.213,12.207,-7.263,-17.151
0.968,0.070,0.208,11.475,-6.409,-15.381
0.964,0.085,0.176,10.071,-3.906,-12.756
0.963,0.114,0.190,7.507,-4.395,-10.315
0.965,0.150,0.215,8.057,-4.333,-8.850
0.965,0.144,0.235,10.132,-3.113,-9.705
0.966,0.199,0.211,9.216,-0.427,-9.583
0.959,0.213,0.167,6.714,2.930,-10.681
0.958,0.174,0.118,5.737,3.235,-13.855
0.958,0.127,0.136,5.188,2.319,-16.296
0.958,0.169,0.120,7.996,-0.061,-16.296
0.957,0.104,0.129,10.132,-0.671,-18.250
0.970,0.025,0.163,11.963,-1.892,-19.165
0.967,0.023,0.137,12.329,-1.892,-15.808
0.968,0.021,0.137,12.024,-0.732,-12.085
0.974,0.035,0.188,12.695,-1.099,-9.094

-0.363,2.225,0.018,-1.709,307.556,280.029
-0.290,2.499,-0.195,-26.184,307.434,242.065
-0.196,2.814,-0.279,-54.565,297.852,201.538
-0.242,3.200,-0.421,-60.913,284.729,151.184
-0.304,3.448,-0.703,-61.401,277.771,87.158
-0.521,3.428,-1.095,-85.571,268.555,13.184
-0.379,2.523,-1.101,-115.356,242.737,-69.275
-0.380,1.970,-0.647,-133.789,205.505,-121.277
-0.383,2.039,-0.754,-147.888,194.214,-133.301
-0.375,2.156,-0.720,-147.583,180.603,-152.649
-0.462,2.150,-0.933,-151.062,171.631,-188.721
-0.507,2.378,-1.174,-136.536,152.893,-224.731
-0.587,2.426,-1.059,-107.056,120.239,-271.423
-0.690,2.066,-0.966,-81.360,87.158,-329.041
-0.747,1.642,-0.842,-127.075,76.355,-365.173
-0.688,1.392,-0.736,-178.772,69.824,-376.831
-0.766,1.240,-0.575,-214.722,55.725,-378.845
-0.854,1.268,-0.720,-252.991,48.218,-372.498
-0.934,1.289,-0.705,-290.222,29.907,-370.911
-1.041,1.287,-0.387,-312.683,-6.042,-379.272
-1.074,1.126,-0.038,-330.627,-31.494,-395.996
-1.133,0.865,0.055,-352.417,-39.795,-412.659
-1.253,0.725,-0.266,-363.953,-36.621,-419.312
-1.293,0.377,-0.583,-377.747,-50.781,-428.528
-1.320,-0.162,-0.683,-388.855,-91.614,-448.608
-1.232,-0.714,-0.804,-373.169,-131.714,-459.412
-1.082,-1.013,-0.878,-348.755,-160.950,-445.862
-0.936,-1.131,-0.734,-334.717,-192.200,-410.828
-0.797,-1.378,-0.592,-297.607,-213.623,-375.610
-0.557,-1.550,-0.253,-238.037,-232.788,-350.464
-0.328,-1.877,-0.008,-196.716,-226.196,-330.750
-0.121,-1.821,-0.080,-171.997,-191.833,-281.738
-0.060,-1.581,-0.257,-161.804,-162.964,-224.609
-0.048,-1.569,-0.478,-148.193,-150.208,-191.528
-0.048,-1.519,-0.701,-133.240,-146.545,-167.969
-0.011,-1.285,-0.715,-115.356,-163.574,-142.334
0.007,-1.160,-0.675,-87.524,-182.007,-129.028
0.033,-1.155,-0.587,-62.622,-202.087,-125.610
0.057,-1.286,-0.471,-47.607,-213.013,-121.826
0.084,-1.396,-0.471,-40.955,-221.558,-110.046
0.165,-1.799,-0.226,-46.631,-225.220,-94.421
0.228,-2.148,0.016,-59.387,-220.398,-63.293
0.319,-1.987,-0.023,-69.946,-196.899,-7.263
0.350,-1.790,-0.092,-76.050,-180.176,40.649
0.365,-1.891,-0.115,-68.787,-170.166,67.566
0.355,-1.876,-0.124,-56.396,-165.039,95.154
0.382,-1.631,-0.022,-40.649,-162.903,125.671
0.392,-1.199,0.181,-24.597,-162.781,149.109
0.390,-1.033,0.141,-12.146,-153.442,156.860
0.362,-1.113,0.073,-9.888,-147.705,159.851
0.395,-1.130,0.187,-10.864,-153.564,170.105
0.449,-0.877,0.436,-8.240,-159.241,189.087
0.512,-0.694,0.581,-0.854,-154.785,199.585
0.593,-0.551,0.719,13.916,-143.066,198.364
0.663,-0.299,0.851,26.245,-126.343,194.031
0.716,-0.000,0.852,29.541,-104.309,185.669
0.770,0.133,0.742,23.804,-82.458,170.593
0.818,0.122,0.618,12.756,-65.613,151.184
0.863,0.194,0.476,5.066,-54.077,135.925
0.908,0.158,0.389,2.136,-46.265,118.713
0.927,-0.091,0.286,2.808,-41.504,99.304
0.931,-0.288,0.190,4.944,-40.527,88.623
0.957,-0.334,0.204,7.935,-43.457,88.074
0.982,-0.420,0.292,9.155,-44.678,89.050
0.967,-0.469,0.340,7.507,-39.246,92.590
0.945,-0.273,0.250,5.798,-29.236,102.112
0.944,-0.077,0.248,3.357,-25.085,107.300
0.964,0.133,0.354,-1.770,-24.597,105.103
1.003,0.368,0.397,-3.723,-20.203,97.473
1.028,0.502,0.428,-4.700,-13.855,81.238
1.032,0.501,0.386,-2.930,-8.301,59.570
1.035,0.370,0.294,-1.221,-3.052,37.903
1.044,0.281,0.260,1.831,-2.808,22.034
1.049,0.070,0.219,0.854,-3.723,9.766
1.044,-0.161,0.223,-6.775,-3.357,4.028
1.049,-0.200,0.130,-13.062,-1.770,9.216
1.044,-0.205,0.127,-12.878,-3.479,14.709
1.045,-0.208,0.233,-12.817,-4.700,18.555
1.020,-0.135,0.154,-13.000,0.854,22.583
1.001,-0.111,0.109,-11.963,4.272,23.621
0.997,-0.056,0.192,-11.780,1.770,23.499
1.004,0.066,0.220,-11.353,1.892,23.071
1.021,0.116,0.250,-10.254,3.418,17.578
1.022,0.069,0.275,-11.475,5.737,9.399
1.016,-0.012,0.210,-11.780,10.010,2.991
1.012,-0.084,0.125,-12.085,12.329,-0.244
1.001,-0.166,0.046,-10.681,11.414,-1.160
1.005,-0.245,0.061,-8.667,7.385,-0.366
1.011,-0.310,0.130,-7.202,4.456,3.174
0.993,-0.252,0.070,-6.958,6.775,9.338
0.977,-0.263,-0.024,-5.920,8.972,13.977
0.966,-0.291,-0.025,-6.470,4.272,17.029
0.978,-0.112,0.034,-7.202,-0.488,23.254
0.985,0.003,0.093,-8.240,-2.808,24.475
0.991,0.028,0.132,-8.118,-3.357,19.775
1.001,0.113,0.176,-7.080,-4.578,15.137
1.001,0.087,0.185,-6.531,-2.319,7.507
1.000,0.022,0.134,-4.578,0.916,-0.305
0.993,-0.104,0.095,-3.845,1.770,-5.493
0.988,-0.222,0.112,-4.028,2.075,-7.141
0.982,-0.229,0.062,-4.944,1.892,-4.272
0.978,-0.306,0.056,-5.127,3.967,-2.258
0.978,-0.311,0.070,-3.662,1.099,0.854
0.976,-0.236,0.068,-1.282,2.136,5.920
0.975,-0.177,0.096,0.916,1.160,8.057
0.970,-0.189,0.100,1.404,1.099,8.179
0.965,-0.143,0.071,0.610,2.197,9.094
0.964,-0.086,0.092,-0.854,1.282,9.705
0.968,-0.080,0.093,-3.296,0.977,7.690
0.970,-0.104,0.084,-4.211,1.465,5.066
0.967,-0.158,0.066,-4.517,1.343,2.686
0.965,-0.157,0.046,-5.066,0.610,2.502
0.967,-0.172,0.047,-5.127,-0.549,2.136
0.974,-0.177,0.050,-3.723,-2.747,1.770
0.967,-0.194,0.052,-1.221,-3.479,1.465
0.976,-0.203,0.116,0.183,-6.470,1.709
0.983,-0.142,0.140,0.122,-5.249,3.662
0.978,-0.158,0.125,0.549,-2.625,2.930
0.973,-0.136,0.105,-0.183,-1.892,2.625

0.327,1.140,1.316,-38.818,167.664,330.566
0.278,1.219,1.260,-54.871,199.463,309.448
0.161,1.181,1.083,-78.918,236.816,286.377
0.085,1.010,0.984,-99.915,269.531,262.878
-0.051,0.862,0.839,-112.427,301.025,243.591
-0.193,0.694,0.495,-120.361,339.417,239.380
-0.279,0.919,0.297,-123.535,370.117,249.084
-0.327,0.937,0.010,-116.455,386.597,235.718
-0.360,1.201,-0.379,-93.140,390.747,221.924
-0.269,1.599,-0.484,-73.608,371.948,208.984
-0.193,1.890,-0.568,-68.604,344.116,175.842
-0.139,1.927,-0.778,-61.829,323.425,129.211
-0.155,1.915,-1.290,-53.223,304.016,84.961
-0.202,2.002,-1.854,-36.804,270.447,52.246
-0.201,1.976,-1.891,-28.748,210.999,26.306
-0.121,1.725,-1.340,-42.419,141.357,8.667
0.077,1.788,-1.031,-78.003,89.172,4.395
0.237,2.092,-1.200,-132.507,62.256,8.057
0.213,2.726,-1.308,-195.740,41.870,14.648
0.229,2.906,-0.556,-228.882,2.380,-20.935
0.294,2.718,0.289,-252.258,-17.883,-100.708
0.235,2.531,0.483,-267.700,17.700,-181.030
-0.127,2.570,0.652,-304.199,72.083,-242.310
-0.480,1.904,0.338,-332.947,123.962,-317.993
-0.689,1.230,-0.127,-335.022,143.860,-377.502
-0.829,1.048,-0.403,-348.938,128.113,-395.447
-0.890,0.708,-0.768,-361.389,99.792,-407.837
-0.914,0.235,-0.901,-359.314,61.523,-423.584
-0.846,-0.168,-0.634,-343.079,22.583,-430.542
-0.670,-0.323,-0.631,-313.782,9.094,-426.514
-0.587,-0.501,-0.985,-292.480,16.113,-423.157
-0.540,-0.899,-1.327,-308.472,12.268,-427.307
-0.469,-1.641,-1.216,-335.388,-14.282,-424.683
-0.610,-2.289,-0.937,-332.520,-52.063,-396.423
-0.449,-2.268,-0.969,-285.156,-66.101,-322.266
-0.265,-1.549,-1.024,-234.680,-73.547,-228.943
-0.304,-0.812,-1.143,-195.007,-87.097,-166.077
-0.314,-0.782,-1.248,-169.250,-101.501,-158.386
-0.275,-0.998,-1.167,-136.353,-121.033,-167.786
-0.386,-0.934,-1.351,-94.788,-130.371,-157.104
-0.386,-0.908,-1.437,-77.759,-149.475,-146.057
-0.375,-1.001,-1.244,-52.612,-180.969,-146.362
-0.316,-1.051,-1.065,-42.114,-203.186,-144.958
-0.278,-0.917,-0.998,-31.006,-212.280,-136.108
-0.282,-0.789,-0.993,-19.531,-219.849,-129.517
-0.297,-0.913,-0.918,-15.625,-228.943,-132.507
-0.277,-1.172,-0.941,-20.447,-237.549,-133.789
-0.199,-1.426,-0.896,-30.273,-249.573,-119.141
-0.221,-1.364,-0.832,-39.001,-265.198,-86.304
-0.174,-1.325,-0.823,-45.410,-279.724,-55.969
-0.222,-1.439,-0.770,-44.434,-294.556,-37.903
-0.206,-1.509,-0.616,-51.147,-311.951,-16.174
-0.143,-1.447,-0.384,-58.105,-329.651,13.245
-0.033,-1.353,-0.067,-63.538,-342.590,41.565
0.101,-1.335,0.212,-64.087,-343.506,63.293
0.117,-1.346,0.187,-47.852,-326.721,79.163
0.192,-1.551,0.274,-30.396,-307.556,94.055
0.200,-1.534,0.437,-8.850,-297.424,117.432
0.265,-1.451,0.542,7.263,-281.067,139.587
0.256,-1.474,0.644,14.343,-258.728,155.823
0.312,-1.588,0.630,10.742,-233.704,172.058
0.257,-1.367,0.802,14.709,-221.558,204.407
0.246,-1.148,0.776,22.888,-203.064,229.797
0.264,-1.007,0.800,28.320,-185.730,244.568
0.283,-0.927,0.912,31.067,-175.659,255.188
0.307,-0.806,0.936,35.034,-160.583,265.808
0.331,-0.599,0.946,36.804,-143.433,275.208
0.383,-0.237,0.969,33.630,-128.479,282.532
0.456,0.123,1.004,31.616,-112.915,282.898
0.513,0.352,1.044,22.644,-96.741,272.400
0.678,0.545,1.060,8.911,-79.895,256.714
0.811,0.688,1.214,3.906,-65.674,235.779
0.904,0.597,1.269,6.653,-41.687,204.529
0.937,0.378,1.083,6.836,-5.005,174.744
0.902,0.246,0.731,4.944,25.818,156.799
0.920,0.315,0.550,2.136,37.720,150.696
0.946,0.616,0.606,1.160,34.485,147.522
0.952,0.971,0.507,-0.610,36.194,136.230
0.934,1.079,0.244,-2.258,40.527,110.657
0.944,0.833,0.047,-8.972,33.813,76.660
0.935,0.601,-0.075,-14.465,17.700,52.063
0.957,0.451,-0.096,-17.639,-1.648,39.978
1.026,0.313,0.134,-19.897,-20.996,32.654
1.061,0.200,0.293,-21.179,-29.297,28.381
1.067,0.086,0.278,-20.386,-21.545,27.344
1.044,0.043,0.286,-14.954,-13.794,29.053
1.035,0.163,0.246,-6.165,-8.545,33.997
1.007,0.236,0.193,4.150,-4.822,33.936
0.981,0.252,0.210,11.414,-5.920,30.151
0.966,0.328,0.226,16.174,-7.019,27.832
0.961,0.388,0.231,15.137,-6.592,23.987
0.965,0.379,0.235,11.047,-4.944,17.273
0.965,0.307,0.230,3.174,-2.502,10.742
0.966,0.223,0.229,-6.104,-0.977,6.958
0.994,0.214,0.208,-11.902,1.343,6.958
0.998,0.179,0.228,-14.465,2.869,6.653
0.982,0.141,0.177,-17.578,6.104,6.165
0.975,0.115,0.138,-18.616,8.667,7.202
0.974,0.119,0.128,-18.250,7.446,8.728
0.973,0.177,0.099,-15.991,5.859,10.254
0.972,0.217,0.109,-10.315,2.258,8.911
0.968,0.179,0.160,-5.554,0.305,4.578
0.969,0.218,0.164,-1.587,-0.366,1.831
0.964,0.228,0.149,0.671,-0.244,-1.038
0.962,0.194,0.127,-0.244,0.183,-4.578
0.964,0.219,0.108,-0.549,-1.465,-7.141
0.967,0.156,0.155,-0.671,-3.540,-10.925
0.965,0.075,0.177,-2.930,-3.967,-14.160
0.963,0.066,0.187,-3.296,-4.028,-13.123
0.965,0.007,0.190,-2.625,-3.906,-12.695
0.970,-0.074,0.207,-2.869,-3.052,-11.047
0.986,-0.065,0.209,-4.211,-1.526,-5.249
0.963,0.009,0.215,-5.005,-0.305,-0.549
0.975,-0.051,0.237,-3.418,1.221,-0.793
0.975,0.091,0.175,-2.380,3.906,3.479
0.970,0.074,0.179,-0.671,4.578,2.441
0.965,0.065,0.179,-1.404,4.517,0.732
0.966,0.102,0.140,-2.441,5.615,1.526
0.966,0.112,0.146,-3.845,3.967,0.732

-0.138,2.519,-0.773,-86.609,360.962,169.189
-0.126,2.315,-0.810,-78.796,329.163,101.013
-0.176,2.223,-1.133,-68.420,305.847,47.852
-0.242,2.355,-1.510,-64.148,275.513,8.545
-0.201,2.209,-1.536,-52.551,224.976,-37.659
-0.127,1.974,-1.213,-35.645,169.373,-82.581
0.090,2.025,-0.943,-46.143,133.057,-106.323
-0.020,2.224,-0.854,-83.069,122.009,-120.483
-0.104,2.171,-0.706,-110.107,116.333,-145.935
-0.099,2.228,-0.834,-106.689,116.882,-178.711
-0.110,2.183,-0.860,-93.872,110.352,-219.116
-0.230,2.049,-0.652,-87.585,87.280,-268.860
-0.232,1.692,-0.273,-85.938,74.524,-320.862
-0.445,1.586,-0.380,-89.050,90.271,-354.065
-0.628,1.268,-0.877,-105.530,119.324,-379.761
-0.738,1.037,-1.257,-116.577,113.708,-400.635
-0.736,0.963,-1.367,-143.188,86.121,-410.278
-0.772,0.588,-1.212,-179.382,51.208,-421.631
-0.783,0.036,-0.701,-208.801,20.813,-428.223
-0.653,-0.265,-0.489,-222.107,9.033,-414.856
-0.544,-0.415,-0.824,-224.792,21.667,-388.733
-0.444,-0.572,-1.183,-219.666,20.325,-363.098
-0.332,-0.712,-1.457,-208.191,0.000,-339.661
-0.255,-0.838,-1.673,-195.923,-25.391,-319.397
-0.236,-0.915,-1.728,-191.040,-58.411,-297.546
-0.264,-0.911,-1.575,-196.411,-94.055,-272.217
-0.257,-0.913,-1.202,-205.261,-125.061,-246.521
-0.221,-0.800,-0.837,-212.036,-143.005,-220.459
-0.155,-0.643,-0.678,-214.233,-145.752,-196.045
-0.140,-0.642,-0.693,-220.337,-144.531,-180.725
-0.114,-0.837,-0.723,-223.022,-148.376,-170.410
-0.094,-1.071,-0.732,-229.797,-158.936,-156.677
-0.001,-1.179,-0.706,-220.398,-171.570,-136.292
0.044,-1.146,-0.618,-196.960,-185.913,-114.868
0.099,-1.177,-0.538,-173.767,-196.106,-99.060
0.118,-1.332,-0.399,-151.001,-205.566,-88.013
0.146,-1.460,-0.292,-137.878,-208.313,-72.571
0.174,-1.526,-0.250,-130.249,-206.848,-50.110
0.160,-1.609,-0.280,-124.634,-206.543,-24.719
0.218,-1.691,-0.240,-131.958,-208.618,4.333
0.264,-1.696,-0.059,-143.799,-215.881,39.124
0.337,-1.510,0.161,-141.602,-220.398,77.576
0.403,-1.344,0.393,-122.925,-218.750,105.896
0.471,-1.351,0.563,-90.393,-209.839,119.019
0.485,-1.337,0.553,-57.983,-191.040,128.845
0.460,-1.522,0.557,-32.410,-171.753,137.634
0.428,-1.615,0.545,-16.846,-156.189,155.212
0.408,-1.554,0.469,-10.742,-139.709,182.312
0.402,-1.329,0.558,-4.211,-133.545,211.548
0.422,-1.050,0.707,3.784,-129.333,235.779
0.425,-0.815,0.775,9.094,-119.934,250.061
0.442,-0.598,0.782,13.672,-107.483,258.301
0.497,-0.376,0.871,18.982,-98.572,262.451
0.531,-0.051,0.974,21.790,-88.684,262.634
0.600,0.290,0.892,15.076,-71.716,257.202
0.713,0.672,0.921,3.357,-57.556,245.361
0.852,0.938,1.040,-0.610,-46.753,221.619
0.953,1.015,1.034,1.648,-27.039,187.683
0.984,0.843,0.824,5.249,-3.418,149.780
0.992,0.554,0.617,9.888,11.108,116.943
1.006,0.413,0.499,14.526,15.808,97.351
1.040,0.430,0.446,16.296,16.602,86.914
1.036,0.426,0.386,14.465,18.066,76.782
1.040,0.363,0.284,9.644,21.484,65.674
1.029,0.300,0.191,5.371,22.583,56.702
1.020,0.286,0.104,-0.183,21.912,50.903
1.022,0.315,0.073,-3.113,17.700,46.814
1.029,0.328,0.081,-4.944,13.916,41.809
1.020,0.332,0.057,-5.676,12.634,36.377
0.984,0.297,-0.008,-3.723,9.644,30.396
0.998,0.319,-0.011,3.296,2.380,25.696
1.013,0.337,0.056,15.259,-7.141,21.118
1.014,0.312,0.111,20.325,-12.451,15.137
1.011,0.288,0.144,22.339,-13.367,9.949
1.013,0.224,0.169,23.499,-11.658,5.066
1.005,0.159,0.134,22.156,-9.521,1.648
1.006,0.130,0.081,18.677,-6.775,1.465
1.000,0.101,0.049,13.245,-7.202,2.075
1.001,0.031,0.107,8.484,-9.766,2.441
1.005,-0.000,0.166,3.418,-9.949,4.700
1.003,0.042,0.135,-0.122,-5.554,8.972
0.993,0.069,0.077,-3.052,-2.930,11.169
0.980,0.061,0.080,-4.333,-4.578,11.414
0.977,0.121,0.133,-4.456,-8.362,12.573
0.974,0.189,0.159,-3.906,-8.911,11.780
0.974,0.187,0.180,-1.587,-8.057,6.958
0.981,0.197,0.186,0.854,-7.324,1.587
0.980,0.142,0.177,1.648,-6.836,-3.357
0.988,0.110,0.183,1.831,-6.531,-7.446
0.996,0.076,0.210,5.127,-6.592,-10.498
0.994,0.009,0.209,5.127,-4.761,-13.184
0.995,-0.005,0.158,5.676,-2.319,-13.000
0.994,-0.037,0.158,4.456,-2.075,-11.658
0.994,-0.047,0.188,1.892,-3.113,-10.010
0.988,-0.033,0.202,1.160,-2.686,-7.690
0.989,-0.042,0.203,1.404,-1.709,-6.531
0.985,-0.077,0.213,1.282,-1.648,-5.859
0.974,-0.071,0.213,1.099,-1.099,-3.906
0.971,-0.055,0.199,1.221,-0.305,-2.563
0.972,-0.045,0.186,1.282,2.014,-2.258
0.972,-0.062,0.164,0.488,2.808,-2.319
0.968,-0.069,0.167,-1.770,3.418,-2.014
0.967,-0.030,0.161,-2.747,4.456,-0.671
0.972,0.003,0.132,-1.160,5.371,-0.549
0.980,0.010,0.100,0.305,6.226,-1.892
0.969,-0.008,0.129,3.540,3.357,-2.930
0.968,-0.034,0.154,5.066,2.380,-4.089
0.964,-0.039,0.125,6.226,3.967,-4.517
0.960,-0.052,0.070,5.371,3.662,-4.395
0.964,-0.087,0.088,4.395,-0.244,-3.662
0.971,-0.082,0.148,4.150,-3.845,-2.319
0.973,-0.078,0.167,4.761,-4.089,-1.160
0.972,-0.107,0.123,3.967,-2.014,-0.183
0.971,-0.104,0.143,0.916,-2.441,2.319
0.975,-0.030,0.188,-0.977,-2.808,5.615
0.978,-0.003,0.205,-2.136,-1.892,5.859
0.977,-0.026,0.197,-2.991,0.793,4.639
0.978,-0.003,0.150,-3.662,2.319,4.395
0.982,0.062,0.123,-0.549,1.953,4.089

0.909,-1.203,0.566,-126.343,-7.690,90.271
0.893,-1.263,0.680,-146.301,4.883,126.221
0.861,-1.276,0.822,-168.152,19.714,165.466
0.781,-1.139,0.893,-178.894,41.077,208.130
0.663,-0.935,0.823,-177.124,65.979,246.826
0.561,-0.729,0.804,-165.588,87.891,278.320
0.488,-0.528,0.935,-145.203,104.309,304.077
0.389,-0.154,0.887,-122.986,123.291,327.759
0.309,0.074,0.707,-105.103,142.334,340.393
0.269,0.071,0.723,-91.614,154.053,340.759
0.161,0.055,0.758,-79.102,166.809,342.407
0.028,0.137,0.760,-67.688,189.209,350.220
-0.095,0.276,0.791,-55.481,211.243,359.070
-0.225,0.568,0.751,-56.396,235.291,369.568
-0.295,0.838,0.735,-65.247,259.277,374.390
-0.354,1.155,0.699,-72.937,282.959,370.483
-0.441,1.514,0.383,-81.543,312.195,360.046
-0.440,1.913,0.057,-90.210,331.970,339.478
-0.372,2.445,-0.274,-109.375,335.937,307.861
-0.273,3.090,-0.622,-125.610,328.796,259.216
-0.176,3.356,-0.676,-139.832,307.129,181.946
-0.151,2.881,-0.621,-145.447,288.147,86.182
-0.188,2.561,-1.025,-146.301,282.043,15.991
-0.168,2.832,-1.914,-164.612,272.644,-21.912
-0.312,2.981,-2.702,-214.844,232.483,-62.622
-0.397,2.526,-2.238,-274.658,148.682,-117.737
-0.458,2.228,-0.743,-320.496,53.162,-160.278
-0.288,2.450,0.338,-342.468,13.367,-194.641
-0.424,2.324,0.675,-348.755,41.138,-255.737
-0.655,1.888,0.523,-370.056,92.407,-330.017
-0.844,1.632,0.052,-383.179,132.019,-383.850
-1.056,1.295,-0.689,-393.494,147.461,-426.086
-1.104,0.645,-1.048,-400.269,125.122,-466.064
-1.061,-0.324,-1.196,-398.682,78.735,-494.385
-0.980,-0.832,-1.334,-370.728,28.503,-476.990
-0.724,-1.076,-1.683,-333.923,-5.188,-438.293
-0.554,-1.543,-1.717,-305.542,-44.861,-405.579
-0.415,-1.704,-1.475,-278.137,-83.008,-361.511
-0.312,-1.488,-1.073,-245.789,-110.962,-308.716
-0.199,-1.012,-0.884,-206.970,-118.408,-265.259
-0.198,-0.550,-0.861,-161.377,-114.441,-245.667
-0.287,-0.227,-0.933,-128.967,-116.028,-244.995
-0.432,-0.209,-1.154,-104.309,-119.385,-258.545
-0.497,-0.444,-1.380,-76.172,-135.254,-278.442
-0.499,-0.917,-1.306,-47.729,-168.701,-292.419
-0.465,-1.359,-1.068,-28.076,-197.021,-285.095
-0.426,-1.375,-1.087,-12.695,-203.125,-252.869
-0.386,-1.192,-1.156,-2.747,-206.604,-217.407
-0.365,-1.098,-0.963,8.301,-223.938,-201.477
-0.342,-1.068,-0.806,23.682,-230.408,-194.946
-0.306,-0.942,-0.785,40.161,-229.309,-187.622
-0.303,-0.708,-0.876,55.725,-226.746,-183.411
-0.329,-0.682,-0.820,65.308,-230.347,-191.833
-0.323,-0.796,-0.744,70.190,-237.793,-202.942
-0.320,-0.819,-0.750,78.308,-239.380,-204.041
-0.305,-0.900,-0.686,81.787,-247.437,-200.195
-0.253,-1.396,-0.506,66.956,-254.395,-196.472
-0.242,-1.670,-0.562,26.123,-249.329,-173.645
-0.216,-1.713,-0.689,-5.676,-244.568,-131.348
-0.205,-1.743,-0.612,-28.320,-256.653,-95.520
-0.180,-1.774,-0.537,-49.377,-268.127,-65.735
-0.164,-1.806,-0.443,-58.716,-278.992,-32.410
-0.129,-1.911,-0.344,-74.097,-286.865,-1.282
-0.116,-1.763,-0.224,-87.219,-292.358,34.729
-0.061,-1.566,0.022,-89.722,-299.683,66.589
0.088,-1.211,0.454,-79.346,-302.734,91.980
0.113,-0.935,0.652,-39.001,-291.077,99.365
0.175,-0.982,0.576,-20.935,-261.780,96.069
0.186,-1.240,0.433,-27.100,-239.746,95.825
0.211,-1.404,0.338,-34.180,-228.577,110.901
0.265,-1.453,0.367,-46.997,-226.990,137.573
0.314,-1.563,0.523,-62.927,-226.135,164.490
0.350,-1.603,0.679,-73.975,-217.468,192.444
0.398,-1.432,0.782,-73.364,-198.975,225.037
0.411,-1.233,0.843,-67.383,-177.795,249.573
0.402,-1.070,0.806,-56.091,-154.114,266.235
0.420,-0.873,0.799,-43.640,-134.949,279.480
0.455,-0.631,0.901,-26.489,-123.413,287.231
0.491,-0.476,1.021,-7.568,-110.657,285.156
0.528,-0.369,1.125,8.057,-91.492,279.724
0.576,-0.210,1.258,19.897,-66.956,276.489
0.615,0.052,1.361,38.635,-38.147,273.010
0.638,0.290,1.395,58.228,-7.690,262.756
0.642,0.537,1.227,68.909,25.146,247.498
0.672,0.774,0.999,65.247,54.626,228.638
0.672,0.915,0.716,53.467,76.904,203.247
0.673,1.014,0.300,33.264,92.529,176.208
0.717,1.046,-0.143,4.150,96.375,150.269
0.801,0.976,-0.449,-23.682,81.238,125.610
0.915,0.866,-0.355,-56.519,51.819,105.286
1.027,0.810,-0.037,-92.590,21.301,89.966
1.107,0.803,0.249,-118.530,8.972,76.599
1.149,0.740,0.401,-122.131,12.085,58.044
1.141,0.571,0.400,-107.361,25.330,36.804
1.102,0.320,0.187,-92.896,45.776,16.846
1.051,0.108,-0.275,-86.914,59.937,2.747
1.004,-0.002,-0.272,-77.576,41.077,-0.122
1.002,0.018,-0.216,-61.829,21.179,5.798
1.010,0.252,-0.172,-53.650,11.108,12.451
1.013,0.364,-0.075,-47.852,1.038,9.583
1.000,0.372,-0.094,-36.865,-4.639,-2.991
1.093,0.180,0.044,-24.963,-13.611,-17.212
1.054,0.127,0.123,-13.611,-16.846,-21.240
1.054,0.045,0.075,-11.658,-10.376,-22.095
1.037,-0.002,0.061,-0.793,-10.437,-23.621
1.028,-0.003,0.008,7.324,-9.216,-21.545
1.021,0.008,0.019,12.024,-10.864,-18.921
1.015,0.005,0.054,15.259,-12.390,-17.090
1.027,-0.085,0.094,16.907,-12.817,-17.029
1.013,-0.196,0.139,15.381,-11.780,-16.235
1.004,-0.164,0.109,14.954,-7.874,-9.583
1.002,-0.113,0.122,14.099,-4.700,-2.563
0.991,-0.076,0.107,11.536,-3.479,0.916
0.979,-0.027,0.037,10.132,0.244,3.601
0.977,0.016,0.040,7.751,-0.122,5.249
0.971,0.068,0.065,5.615,-1.404,5.493
0.975,0.090,0.079,4.333,-0.549,3.723
0.975,0.092,0.049,5.981,0.244,0.000
0.970,0.046,-0.008,8.606,-0.488,-3.601

0.278,1.740,1.443,-55.237,250.122,303.162
0.214,2.317,1.428,-69.702,296.509,274.780
0.134,2.792,1.315,-111.633,341.492,226.318
-0.010,3.036,1.013,-168.762,384.338,157.288
-0.176,2.775,0.254,-226.013,421.570,69.275
-0.303,2.056,-0.560,-265.808,431.519,-15.930
-0.358,1.449,-0.968,-299.438,403.259,-75.500
-0.222,1.403,-0.896,-336.792,354.553,-103.882
-0.150,1.574,-0.729,-360.779,307.678,-122.925
-0.195,1.519,-0.787,-378.357,284.180,-157.104
-0.226,1.333,-1.078,-392.456,271.057,-196.533
-0.255,1.271,-1.226,-398.193,245.300,-227.661
-0.312,1.361,-1.317,-388.428,203.552,-254.211
-0.343,1.194,-1.275,-367.859,156.738,-292.053
-0.392,0.658,-1.193,-347.778,115.601,-339.600
-0.456,-0.047,-1.487,-319.031,94.055,-379.822
-0.457,-0.644,-1.761,-283.142,73.364,-393.677
-0.406,-1.055,-1.910,-246.033,38.208,-382.324
-0.352,-1.368,-1.929,-201.233,-0.061,-362.488
-0.247,-1.442,-1.712,-147.766,-39.307,-335.083
-0.186,-1.219,-1.212,-101.624,-71.655,-301.636
-0.201,-0.771,-0.960,-64.087,-79.956,-272.217
-0.233,-0.489,-0.983,-33.813,-71.411,-262.329
-0.328,-0.295,-1.048,-4.089,-70.679,-265.137
-0.359,-0.470,-1.110,11.536,-78.918,-276.123
-0.365,-0.911,-1.180,28.748,-91.248,-287.109
-0.321,-1.451,-1.215,39.368,-101.135,-278.259
-0.342,-1.387,-1.409,21.362,-110.229,-240.234
-0.297,-0.883,-1.568,10.620,-120.361,-189.026
-0.280,-0.723,-1.376,11.353,-149.353,-173.706
-0.283,-0.683,-1.201,16.785,-169.922,-177.490
-0.325,-0.758,-1.231,21.973,-178.406,-180.054
-0.357,-0.949,-1.354,22.278,-185.242,-181.152
-0.364,-0.883,-1.306,11.047,-204.529,-169.373
-0.357,-0.740,-1.149,-4.333,-226.196,-155.640
-0.324,-0.697,-1.000,-15.320,-242.004,-149.475
-0.304,-0.864,-0.853,-22.644,-255.310,-148.499
-0.308,-0.966,-0.787,-28.931,-263.428,-141.846
-0.262,-1.018,-0.699,-30.273,-272.278,-130.188
-0.234,-1.059,-0.617,-25.452,-280.823,-120.911
-0.192,-1.139,-0.519,-22.400,-286.682,-111.511
-0.177,-1.352,-0.408,-26.917,-287.231,-99.304
-0.153,-1.320,-0.484,-33.569,-283.997,-74.951
-0.112,-1.300,-0.533,-39.246,-288.147,-53.467
-0.061,-1.411,-0.337,-49.683,-304.749,-38.086
-0.031,-1.532,-0.155,-60.547,-313.599,-17.883
0.020,-1.578,-0.005,-72.876,-313.416,6.531
0.069,-1.617,0.169,-73.181,-313.232,31.677
0.104,-1.672,0.314,-68.909,-307.922,57.251
0.143,-1.684,0.410,-65.979,-299.255,84.656
0.157,-1.621,0.540,-64.575,-287.537,112.549
0.214,-1.588,0.690,-61.218,-273.071,137.390
0.253,-1.658,0.845,-56.946,-255.249,158.569
0.286,-1.689,0.880,-49.683,-227.844,184.265
0.301,-1.539,0.870,-45.410,-197.266,216.919
0.306,-1.414,0.874,-45.959,-170.166,241.394
0.323,-1.233,0.902,-43.945,-146.790,260.010
0.344,-0.957,0.919,-29.236,-123.779,276.123
0.345,-0.753,0.829,-13.733,-97.839,283.386
0.354,-0.609,0.800,-9.399,-78.613,284.424
0.429,-0.401,0.874,-3.906,-66.284,286.377
0.505,-0.138,0.941,3.845,-55.115,287.109
0.581,0.076,0.923,4.517,-38.391,281.067
0.643,0.206,0.875,0.305,-21.484,267.273
0.703,0.219,0.780,-2.747,-1.709,248.474
0.743,0.223,0.661,-0.488,17.029,230.530
0.739,0.341,0.478,-0.305,32.532,218.689
0.752,0.478,0.279,-8.728,42.542,207.642
0.777,0.553,0.124,-22.461,44.678,192.749
0.826,0.593,0.007,-34.302,41.504,176.636
0.867,0.671,0.014,-44.617,32.776,160.828
0.904,0.860,0.107,-47.668,23.682,144.775
0.939,0.996,0.142,-43.152,20.996,123.718
0.969,0.941,0.099,-40.955,20.569,96.558
0.980,0.778,0.057,-35.400,17.639,70.007
1.001,0.664,0.010,-23.682,11.902,49.927
1.009,0.557,0.010,-12.573,3.967,34.973
1.023,0.456,0.057,-6.531,-3.967,23.743
1.063,0.341,0.142,-0.732,-9.583,15.198
1.067,0.233,0.253,2.075,-11.169,10.376
1.046,0.190,0.221,0.916,-2.380,10.193
1.018,0.167,0.117,0.427,5.676,11.108
1.005,0.163,0.104,1.526,6.042,11.780
0.993,0.195,0.091,3.479,4.395,12.939
0.973,0.208,0.063,3.357,4.272,12.939
0.968,0.185,0.043,2.808,3.235,11.658
0.935,0.189,0.036,2.747,1.099,10.925
0.985,0.157,0.031,3.845,-0.854,9.888
0.988,0.187,0.111,7.446,-4.333,9.888
0.997,0.226,0.130,6.531,-4.272,10.498
1.002,0.305,0.148,6.775,-2.441,8.606
1.020,0.337,0.122,8.667,-0.122,4.089
0.999,0.270,0.101,9.460,2.319,-3.418
0.980,0.244,0.029,8.118,3.418,-7.324
0.981,0.202,0.038,5.676,1.404,-10.132
0.993,0.178,0.120,3.784,-1.953,-12.085
0.983,0.178,0.155,4.028,-2.075,-13.672
0.985,0.142,0.099,5.859,0.549,-16.113
0.980,0.082,0.089,4.272,0.061,-17.456
0.985,0.023,0.125,2.808,-2.441,-17.212
0.990,0.005,0.146,5.188,-2.808,-15.625
0.990,0.028,0.117,6.958,-1.709,-13.428
0.980,0.031,0.099,5.859,-1.221,-12.268
0.972,0.017,0.122,4.028,-2.686,-11.597
0.968,0.066,0.098,5.066,-3.235,-10.010
0.984,0.005,0.099,6.042,-3.235,-10.986
0.985,-0.081,0.150,3.235,-5.615,-11.963
0.981,-0.087,0.139,0.732,-4.456,-8.728
0.986,0.001,0.129,1.160,-3.601,-4.150
0.985,0.033,0.135,2.625,-3.418,-3.174
0.979,-0.019,0.138,0.793,-2.502,-4.761
0.982,-0.028,0.170,-0.122,-2.808,-3.845
0.986,0.022,0.181,0.427,-1.831,-1.892
0.978,0.047,0.143,1.343,1.465,-1.648
0.975,0.032,0.097,1.465,3.418,-2.380
0.977,0.057,0.085,2.380,2.686,-2.686
0.976,0.058,0.102,5.005,1.099,-3.845
0.975,0.027,0.137,7.019,-0.122,-6.104
0.965,0.033,0.135,9.399,0.122,-6.470

0.840,-0.855,0.980,-123.291,30.884,170.776
0.818,-0.704,1.331,-123.901,52.856,203.796
0.771,-0.451,1.414,-125.610,90.515,233.826
0.697,-0.231,1.486,-125.671,133.118,254.517
0.619,0.082,1.386,-120.361,175.598,269.653
0.514,0.483,1.250,-114.502,217.590,279.236
0.418,0.831,1.192,-110.413,252.502,276.184
0.366,1.210,1.200,-107.666,283.569,262.024
0.298,1.784,1.100,-109.192,317.017,241.455
0.224,2.281,1.012,-121.277,350.342,201.294
0.099,2.427,0.789,-142.029,379.883,136.597
-0.095,2.241,0.322,-168.518,407.532,65.308
-0.220,1.830,-0.169,-175.598,420.898,-1.343
-0.250,1.502,-0.490,-171.143,413.635,-52.734
-0.250,1.315,-0.939,-175.476,399.170,-89.905
-0.205,1.037,-1.317,-197.266,375.854,-116.882
-0.085,0.803,-1.308,-228.943,337.463,-131.592
-0.037,0.902,-1.248,-250.977,300.110,-132.263
-0.020,0.898,-1.313,-263.794,270.447,-136.963
-0.047,0.790,-1.380,-266.174,240.601,-150.696
-0.029,0.947,-1.283,-258.118,203.552,-163.635
-0.044,1.089,-1.187,-255.554,176.758,-181.152
-0.094,0.919,-1.280,-247.620,159.851,-216.309
-0.131,0.550,-1.400,-245.911,144.348,-251.648
-0.182,0.331,-1.594,-236.755,124.573,-273.254
-0.184,-0.153,-1.681,-229.553,98.877,-286.865
-0.152,-0.546,-1.449,-223.572,65.491,-293.701
-0.121,-0.700,-1.358,-206.787,45.715,-282.166
-0.068,-0.741,-1.474,-180.298,35.706,-267.822
-0.045,-0.743,-1.459,-163.574,22.156,-257.141
-0.091,-0.790,-1.383,-137.329,1.770,-249.451
-0.140,-0.831,-1.314,-111.145,-14.526,-240.173
-0.145,-0.865,-1.199,-80.444,-30.640,-227.600
-0.144,-0.687,-1.205,-51.147,-43.274,-211.914
-0.169,-0.421,-1.397,-25.818,-50.415,-198.975
-0.164,-0.432,-1.378,-4.517,-65.430,-195.618
-0.319,-0.410,-1.404,6.042,-80.383,-197.388
-0.367,-0.368,-1.756,14.771,-90.881,-195.190
-0.433,-0.482,-1.753,19.897,-121.948,-202.820
-0.444,-0.537,-1.556,21.912,-157.654,-208.130
-0.450,-0.578,-1.396,21.790,-181.030,-208.740
-0.439,-0.621,-1.293,27.588,-197.388,-210.571
-0.457,-0.572,-1.202,32.532,-211.487,-212.891
-0.447,-0.553,-1.056,29.968,-223.083,-217.407
-0.449,-0.667,-0.986,27.466,-232.971,-223.145
-0.434,-0.941,-0.913,17.456,-239.136,-224.304
-0.411,-0.951,-0.806,-9.338,-245.300,-208.801
-0.365,-0.836,-0.747,-34.241,-248.840,-186.707
-0.311,-0.828,-0.622,-45.471,-254.700,-175.842
-0.335,-0.857,-0.620,-45.898,-256.348,-170.044
-0.332,-1.059,-0.613,-47.302,-258.789,-165.039
-0.331,-1.195,-0.585,-49.805,-266.174,-153.625
-0.288,-1.233,-0.536,-52.917,-274.048,-135.681
-0.282,-1.278,-0.448,-55.908,-282.593,-120.789
-0.273,-1.436,-0.468,-59.692,-285.400,-106.262
-0.281,-1.608,-0.597,-65.613,-290.161,-86.060
-0.274,-1.818,-0.526,-79.224,-303.589,-57.983
-0.245,-1.739,-0.293,-95.764,-322.998,-17.395
-0.199,-1.727,-0.062,-102.966,-333.496,18.494
-0.132,-1.790,0.140,-104.492,-334.106,45.898
-0.042,-1.675,0.414,-97.961,-327.820,72.327
0.038,-1.684,0.611,-79.346,-309.692,89.111
0.098,-1.704,0.655,-64.758,-279.724,106.995
0.139,-1.860,0.652,-60.669,-250.671,126.587
0.157,-2.015,0.605,-62.012,-227.051,150.269
0.143,-1.994,0.622,-63.232,-208.313,184.875
0.119,-1.725,0.646,-67.322,-191.284,225.891
0.118,-1.534,0.654,-72.571,-173.706,256.287
0.125,-1.435,0.659,-76.843,-154.297,277.405
0.101,-1.239,0.590,-74.524,-135.864,299.622
0.104,-1.031,0.603,-74.646,-122.498,320.801
0.130,-0.813,0.752,-75.989,-113.708,335.144
0.161,-0.462,0.846,-72.388,-96.985,346.863
0.214,-0.016,0.861,-63.904,-78.308,350.342
0.349,0.487,0.853,-55.969,-61.951,343.933
0.539,0.838,0.973,-49.133,-52.185,321.655
0.666,0.925,1.011,-40.894,-36.926,284.058
0.727,0.757,0.844,-38.635,-12.939,244.629
0.791,0.556,0.638,-35.828,5.005,210.999
0.863,0.576,0.616,-29.724,12.939,190.186
0.917,0.763,0.681,-31.128,17.578,173.401
0.951,1.074,0.624,-34.302,30.090,154.480
0.972,1.069,0.480,-42.053,43.396,123.718
0.961,0.828,0.272,-52.673,51.086,88.745
0.984,0.635,0.161,-61.523,49.927,65.979
1.008,0.600,0.137,-65.613,41.809,53.772
1.022,0.526,0.133,-64.697,36.682,42.786
1.014,0.364,0.091,-61.035,32.715,29.907
1.024,0.218,0.058,-58.655,29.785,22.034
1.001,0.103,0.076,-55.908,23.254,19.714
0.996,0.049,0.005,-48.279,21.240,20.386
0.991,0.074,-0.033,-35.156,17.456,22.400
0.984,0.017,-0.033,-24.475,12.207,22.217
0.981,0.014,0.019,-17.639,7.080,23.437
0.981,0.078,0.043,-10.864,4.211,27.344
0.984,0.093,0.083,-9.277,2.747,28.198
0.981,0.179,0.093,-8.362,1.221,29.236
0.982,0.262,0.144,-7.141,0.488,28.564
0.981,0.322,0.181,-7.507,0.549,24.414
0.978,0.362,0.128,-8.057,3.113,18.311
0.988,0.405,0.113,-6.897,3.662,10.620
0.991,0.334,0.154,-5.554,1.953,1.404
0.999,0.232,0.151,-4.639,2.014,-5.798
1.003,0.173,0.126,-1.099,1.831,-10.437
1.000,0.106,0.094,2.197,1.526,-12.573
1.000,-0.015,0.133,2.075,-0.854,-13.855
1.001,-0.052,0.165,1.160,-2.563,-10.559
0.994,-0.036,0.145,0.366,-1.709,-5.005
0.994,-0.048,0.164,-0.916,-2.197,-2.075
0.995,-0.013,0.149,-1.648,-1.587,0.610
0.984,-0.013,0.146,-2.563,-0.671,2.869
0.976,-0.025,0.165,-3.052,-1.038,4.272
0.979,0.037,0.175,-1.526,-0.610,6.592
0.984,0.153,0.198,0.366,-0.793,7.019
0.979,0.203,0.187,0.427,0.732,3.479
0.977,0.178,0.184,0.549,1.709,-2.197
0.974,0.141,0.175,1.099,2.136,-6.531
0.976,0.082,0.146,0.854,2.930,-9.460
0.983,0.037,0.114,0.305,2.808,-10.498

0.321,1.808,1.028,-220.581,249.084,376.404
0.329,2.235,0.798,-232.544,289.917,335.632
0.299,2.140,0.675,-268.860,323.425,269.836
0.168,1.809,0.401,-306.335,356.506,204.773
0.057,1.358,-0.162,-351.379,385.010,154.175
-0.014,0.776,-0.389,-393.066,391.907,119.873
-0.008,0.589,-0.270,-402.832,382.385,104.492
-0.051,0.923,-0.500,-389.771,385.193,102.844
-0.092,1.070,-0.936,-389.526,390.137,86.182
-0.119,0.859,-1.046,-402.161,371.826,51.575
-0.090,0.995,-0.930,-402.649,341.003,29.602
-0.127,1.281,-0.954,-400.146,316.101,11.658
-0.246,1.348,-1.255,-405.151,300.171,-18.677
-0.351,1.274,-1.615,-411.133,278.015,-59.143
-0.425,1.635,-1.736,-402.222,230.774,-98.083
-0.502,2.000,-1.755,-370.056,169.006,-145.508
-0.593,1.929,-1.597,-316.772,102.905,-218.445
-0.672,1.670,-1.221,-249.878,40.894,-299.805
