aX,aY,aZ,gX,gY,gZ
0.485,0.333,2.303,-33.081,-118.103,24.414
0.182,0.293,1.971,-19.653,-88.806,16.357
0.272,0.265,2.323,-19.958,-75.012,9.277
0.257,0.319,2.386,-15.747,-53.589,6.653
0.241,0.299,2.403,-7.935,-25.391,0.977
0.280,0.304,2.681,-0.488,-6.714,-2.197
0.306,0.566,2.656,8.240,18.677,-3.662
0.235,0.139,2.789,25.940,50.110,-19.470
0.222,0.169,2.624,31.921,89.844,-19.409
0.222,0.225,2.365,30.334,129.639,-16.235
0.233,0.237,2.169,30.212,164.612,-18.250
0.223,0.204,2.000,32.227,190.308,-20.508
0.218,0.137,1.804,31.799,217.407,-21.912
0.199,0.181,1.672,28.259,238.647,-20.325
0.218,0.123,1.440,22.400,265.198,-20.752
0.206,0.093,1.111,20.203,282.532,-21.484
0.219,0.056,0.913,26.245,286.499,-21.667
0.260,0.070,0.930,31.555,280.945,-19.531
0.322,0.144,0.858,31.189,280.823,-16.663
0.329,0.178,0.599,32.532,285.461,-17.395
0.324,0.143,0.361,33.997,284.546,-22.339
0.351,0.112,0.272,32.349,276.245,-26.184
0.373,0.012,0.203,27.222,267.273,-28.320
0.407,-0.006,0.147,23.254,260.986,-26.550
0.452,0.020,0.063,20.752,254.883,-23.682
0.500,0.023,-0.010,15.320,251.282,-23.682
0.532,0.014,-0.067,9.644,247.620,-24.902
0.522,-0.001,-0.229,5.676,245.056,-26.367
0.508,-0.094,-0.441,4.700,237.610,-28.931
0.526,-0.200,-0.557,2.625,219.604,-27.466
0.565,-0.222,-0.591,-0.549,195.557,-19.958
0.598,-0.203,-0.650,-2.258,172.852,-11.353
0.641,-0.181,-0.662,-5.371,150.940,-4.822
0.682,-0.150,-0.630,-8.789,129.761,-0.610
0.728,-0.114,-0.627,-12.695,112.854,2.747
0.765,-0.069,-0.598,-15.503,97.107,4.700
0.801,-0.018,-0.585,-15.320,83.008,4.333
0.813,0.006,-0.632,-14.099,71.350,2.258
0.841,0.006,-0.647,-12.085,56.458,-0.854
0.875,0.023,-0.560,-10.864,39.429,-2.502
0.901,0.031,-0.418,-9.094,25.574,-4.639
0.904,0.017,-0.334,-7.446,17.517,-7.751
0.893,-0.033,-0.339,-4.700,14.221,-10.925
0.885,-0.125,-0.294,-1.465,8.789,-13.062
0.888,-0.160,-0.262,1.465,4.089,-10.986
0.896,-0.167,-0.258,4.456,0.916,-7.629
0.897,-0.180,-0.222,8.850,-1.282,-4.883
0.891,-0.190,-0.177,11.536,-2.380,-2.747
0.899,-0.174,-0.150,10.986,-1.221,0.122
0.926,-0.112,-0.153,6.287,1.221,4.028
0.949,-0.031,-0.141,0.366,2.075,6.897
0.962,-0.008,-0.138,-5.554,2.502,6.714
0.973,0.001,-0.107,-10.620,2.686,5.371
0.980,0.021,-0.096,-13.367,2.563,4.089
0.978,0.024,-0.086,-14.160,2.808,1.953
0.976,-0.011,-0.076,-11.719,0.488,-1.160
0.980,-0.055,-0.079,-7.935,-1.770,-2.502
0.970,-0.091,-0.079,-5.005,-4.028,-2.686
0.946,-0.122,-0.055,-2.075,-7.019,-2.258
0.940,-0.144,-0.028,1.038,-10.010,-0.977
0.968,-0.100,0.026,4.028,-12.451,1.770
0.980,-0.044,0.067,7.202,-12.573,3.296
0.984,-0.041,0.072,9.888,-11.230,2.075
0.983,-0.065,0.075,9.949,-9.827,0.610
0.981,-0.080,0.074,8.118,-8.484,1.343
0.993,-0.065,0.127,4.822,-8.484,3.235
1.008,0.019,0.154,2.258,-7.019,4.700
1.407,0.013,0.444,5.127,-3.784,2.441
1.089,0.116,0.321,67.139,1.587,-3.357
1.031,0.112,-0.071,104.736,11.658,-11.108
0.866,0.015,-0.213,99.609,4.883,-13.062
0.978,-0.070,-0.061,66.589,-9.094,-12.756
0.979,-0.017,0.129,50.476,-17.456,-8.484
1.013,-0.042,0.106,46.265,-15.808,-7.629
0.939,-0.125,0.089,38.574,-12.268,-7.874
0.970,-0.155,0.109,25.879,-12.207,-4.089
0.991,-0.090,0.200,10.620,-13.245,1.404
0.989,-0.109,0.206,2.136,-6.897,3.662
0.986,-0.105,0.160,1.038,-1.831,4.395
0.994,-0.064,0.128,0.671,0.305,6.653
0.996,-0.043,0.110,0.305,1.526,7.385
0.989,-0.022,0.085,-0.488,2.930,7.202
0.991,-0.025,0.080,-0.854,1.526,6.287
0.997,-0.009,0.085,0.366,1.953,5.066
1.009,0.025,0.115,-0.793,0.488,4.456
1.012,0.005,0.132,-3.601,0.549,3.113
1.002,-0.020,0.101,-7.751,3.601,2.136
0.988,-0.040,0.069,-9.644,3.845,2.319
0.989,-0.061,0.101,-10.681,2.197,2.747
0.990,-0.071,0.115,-12.146,3.601,4.150
0.987,-0.059,0.089,-13.123,5.432,5.676
0.990,-0.036,0.072,-14.160,6.470,7.202
1.000,-0.013,0.077,-15.137,6.042,7.507
0.996,0.008,0.086,-14.771,4.944,7.202
0.993,0.014,0.049,-14.648,4.822,5.920
1.000,-0.012,0.050,-16.968,2.625,4.211
0.999,-0.032,0.089,-16.296,0.793,3.296
0.996,-0.018,0.095,-15.503,0.916,3.418
1.001,0.003,0.081,-15.808,3.662,3.174
1.001,0.005,0.062,-15.320,4.395,1.770
0.994,-0.005,0.043,-14.404,6.226,0.183
0.991,-0.013,0.047,-13.062,3.967,-0.977
0.986,-0.031,0.075,-11.230,4.272,-1.953
0.984,-0.039,0.066,-9.094,3.235,-2.136
0.983,-0.040,0.064,-7.080,3.540,-2.014
0.985,-0.032,0.058,-5.371,3.113,-1.892
0.982,-0.025,0.043,-4.700,3.723,-1.831
0.971,-0.041,0.027,-4.028,2.502,-2.136
0.972,-0.079,0.035,-3.601,1.526,-2.197
0.985,-0.077,0.095,-3.479,-0.549,-1.099
0.998,-0.023,0.092,-4.822,2.014,0.977
1.001,0.001,0.076,-5.371,4.150,1.160
0.995,-0.001,0.052,-6.104,5.371,-0.244
0.994,-0.012,0.020,-6.897,4.883,-1.343
0.993,-0.033,0.037,-7.019,3.174,-1.709
0.984,-0.043,0.072,-6.348,1.953,-1.892
0.970,-0.067,0.044,-5.066,2.136,-2.136
0.979,-0.084,0.061,-4.456,1.587,-2.014
0.985,-0.077,0.094,-3.662,0.244,-0.732

0.186,0.079,2.407,-22.949,-40.344,0.183
0.191,0.059,2.560,-20.081,-12.695,-2.075
0.176,0.059,2.576,-8.911,12.939,-2.625
0.167,0.032,2.579,3.052,38.879,-4.028
0.168,0.026,2.578,11.658,66.650,-4.456
0.165,-0.002,2.480,16.235,98.022,-4.089
0.166,-0.023,2.439,17.944,127.625,-3.113
0.193,-0.018,2.437,16.663,156.738,-1.648
0.205,0.000,2.256,16.235,193.481,0.610
0.191,0.007,1.951,17.944,228.760,1.343
0.166,-0.036,1.673,17.639,255.920,1.709
0.157,-0.041,1.491,12.939,270.569,3.357
0.185,-0.098,1.226,4.517,285.156,5.249
0.234,-0.052,1.015,-1.221,293.945,9.338
0.297,0.038,0.882,-2.991,288.696,14.648
0.350,0.085,0.740,-6.897,285.034,14.832
0.401,0.174,0.655,-8.179,276.367,13.672
0.446,0.199,0.608,-8.667,268.677,9.399
0.477,0.206,0.506,-9.460,262.024,3.540
0.488,0.208,0.347,-8.911,256.348,-1.648
0.481,0.115,0.239,-8.972,248.657,-7.568
0.498,0.070,0.154,-8.728,239.502,-10.742
0.525,0.049,0.049,-11.108,231.018,-10.376
0.533,0.019,-0.041,-11.780,223.083,-10.315
0.558,-0.008,-0.097,-13.672,212.952,-10.071
0.611,0.012,-0.118,-17.639,201.233,-8.423
0.644,0.036,-0.177,-20.081,191.223,-7.202
0.663,0.047,-0.238,-21.973,183.533,-7.690
0.689,0.063,-0.244,-23.987,171.387,-8.972
0.726,0.077,-0.263,-25.757,159.973,-11.047
0.749,0.064,-0.327,-25.146,150.208,-14.038
0.754,0.029,-0.341,-23.743,138.367,-17.456
0.751,-0.017,-0.361,-22.278,127.502,-19.897
0.759,-0.059,-0.394,-20.447,117.249,-21.057
0.764,-0.094,-0.438,-18.555,107.117,-20.630
0.783,-0.107,-0.431,-16.785,95.886,-19.165
0.826,-0.066,-0.375,-14.709,84.290,-16.724
0.852,-0.021,-0.338,-12.329,74.951,-15.564
0.863,-0.010,-0.308,-9.888,67.932,-16.479
0.865,-0.028,-0.305,-7.629,62.317,-18.433
0.869,-0.046,-0.333,-5.920,57.739,-19.592
0.870,-0.050,-0.331,-5.188,52.185,-19.592
0.880,-0.059,-0.327,-5.676,46.265,-19.043
0.882,-0.099,-0.336,-6.897,41.504,-18.677
0.886,-0.128,-0.309,-9.094,35.950,-17.029
0.901,-0.120,-0.286,-11.719,31.921,-13.428
0.908,-0.124,-0.256,-12.939,28.809,-10.620
0.910,-0.115,-0.257,-12.634,26.184,-8.423
0.914,-0.123,-0.265,-10.681,23.193,-7.080
0.926,-0.102,-0.223,-7.812,19.226,-5.798
0.942,-0.057,-0.180,-4.456,15.686,-4.822
0.941,-0.059,-0.207,-1.038,14.648,-5.737
0.931,-0.087,-0.230,1.465,12.756,-7.263
0.934,-0.092,-0.198,2.563,9.033,-7.202
0.940,-0.095,-0.186,2.319,6.348,-6.470
0.940,-0.111,-0.184,2.075,4.822,-5.920
0.933,-0.118,-0.187,2.258,3.601,-4.883
0.931,-0.139,-0.210,1.831,2.380,-4.028
0.927,-0.151,-0.210,1.282,0.977,-2.563
0.932,-0.132,-0.177,-0.061,-2.136,-0.427
0.940,-0.104,-0.152,-1.648,-3.662,1.770
0.950,-0.087,-0.155,-2.563,-3.906,2.258
0.962,-0.068,-0.151,-2.441,-5.188,2.136
0.966,-0.058,-0.128,-1.526,-7.690,1.343
0.975,-0.041,-0.101,-0.671,-9.460,0.366
0.979,-0.053,-0.087,-0.183,-10.193,-0.916
0.974,-0.075,-0.083,-0.793,-10.437,-1.892
0.974,-0.085,-0.071,-2.319,-11.536,-1.648
0.978,-0.088,-0.034,-3.845,-12.207,-0.793
0.974,-0.087,-0.016,-5.066,-12.024,0.000
0.971,-0.106,-0.001,-5.554,-11.292,0.671
0.977,-0.098,0.027,-5.310,-10.864,2.136
0.984,-0.097,0.047,-3.479,-10.986,3.296
0.989,-0.090,0.048,-0.916,-9.583,3.845
0.995,-0.080,0.051,0.244,-7.507,4.272
0.993,-0.061,0.055,0.610,-6.348,4.578
0.999,-0.054,0.047,0.610,-4.639,4.700
1.005,-0.045,0.049,0.122,-3.418,4.822
1.012,-0.013,0.044,-0.916,-1.831,5.005
1.012,-0.003,0.031,-1.221,-1.038,3.967
1.006,-0.016,0.011,-0.488,-0.732,2.258
0.999,-0.050,0.020,0.000,-1.831,1.099
1.002,-0.041,0.036,-0.488,-2.747,1.831
1.004,-0.036,0.035,0.000,-2.808,2.197
1.002,-0.044,0.037,0.488,-2.136,1.953
1.002,-0.047,0.044,0.610,-2.136,2.197
1.006,-0.037,0.071,0.977,-1.953,2.686
1.011,-0.030,0.067,1.831,-1.526,2.808
1.007,-0.021,0.045,2.075,-0.732,2.502
1.007,-0.020,0.043,2.625,-0.183,2.014
1.005,-0.015,0.029,2.014,0.488,1.709
1.006,-0.008,0.012,1.892,0.610,1.221
1.001,-0.027,0.029,2.136,0.122,0.122
0.997,-0.018,0.010,1.953,0.671,-0.427
0.993,-0.034,-0.014,1.892,0.916,-1.099
0.992,-0.039,0.009,2.136,-0.366,-1.282
0.996,-0.035,0.010,1.831,-0.732,-0.854
0.990,-0.043,0.001,1.160,-0.183,-0.916
0.985,-0.065,0.003,0.610,0.183,-1.099
0.981,-0.072,-0.005,0.000,0.000,-0.183
0.977,-0.074,-0.006,0.122,-0.427,0.854
0.976,-0.071,-0.010,1.343,-0.671,1.648
0.979,-0.080,0.015,2.258,-1.404,2.075
0.984,-0.058,0.023,2.380,-1.282,3.113
0.992,-0.043,0.030,2.197,-0.732,3.723
1.002,-0.021,0.043,1.892,-0.061,3.540
1.005,-0.002,0.031,1.282,1.343,2.991
1.006,-0.000,0.019,0.916,2.075,1.709
1.007,-0.001,0.002,0.916,2.258,0.549
1.009,-0.016,0.014,-0.183,1.587,-0.183
1.001,-0.020,0.014,-0.854,1.282,-0.732
0.998,-0.042,0.002,-0.732,1.648,-1.160
0.996,-0.049,0.010,-0.427,0.610,-1.221
0.990,-0.050,0.009,0.366,-0.244,-1.038
0.982,-0.055,0.011,0.916,-0.366,-1.160
0.978,-0.079,0.002,0.977,-0.671,-1.160
0.979,-0.085,0.014,0.977,-1.038,-0.427
0.985,-0.075,0.030,0.854,-2.014,0.977
0.991,-0.056,0.038,0.977,-1.953,2.136

0.125,0.089,2.604,-15.442,-88.806,5.127
0.138,0.103,2.616,-24.536,-55.420,3.052
0.128,0.107,2.606,-25.696,-27.283,0.793
0.129,0.066,2.663,-22.766,-3.174,-1.526
0.144,0.029,2.767,-17.212,20.508,-2.258
0.152,0.030,2.745,-7.568,48.096,-2.136
0.158,0.001,2.644,4.028,78.125,-1.953
0.162,-0.014,2.537,13.977,103.699,-1.038
0.179,-0.002,2.412,20.935,127.930,0.793
0.200,0.025,2.256,25.635,156.921,2.380
0.191,0.032,2.047,28.931,187.927,3.113
0.180,-0.005,1.863,29.297,212.769,3.479
0.179,-0.006,1.660,27.100,232.300,5.066
0.199,0.011,1.470,21.973,252.014,7.324
0.224,0.036,1.282,17.212,263.367,8.911
0.247,0.012,1.130,14.404,271.851,9.460
0.274,0.029,0.965,12.390,275.635,10.803
0.299,0.060,0.735,11.169,277.466,12.451
0.332,0.107,0.511,8.789,273.621,12.573
0.380,0.126,0.501,4.883,260.315,10.986
0.423,0.161,0.500,3.845,247.559,8.789
0.456,0.192,0.363,3.845,242.737,6.409
0.476,0.181,0.236,1.953,237.000,2.319
0.487,0.125,0.163,-0.488,228.882,-2.075
0.504,0.059,0.052,-5.188,221.924,-4.639
0.529,0.045,-0.054,-11.292,214.355,-4.761
0.576,0.047,-0.046,-18.860,202.637,-4.333
0.611,0.057,-0.080,-23.010,193.787,-4.333
0.630,0.055,-0.169,-26.184,187.439,-5.188
0.654,0.014,-0.204,-29.114,177.979,-6.775
0.689,0.035,-0.246,-30.090,167.725,-6.653
0.701,0.027,-0.292,-30.579,157.593,-7.202
0.719,0.014,-0.302,-30.884,145.142,-8.667
0.750,0.021,-0.291,-30.762,133.057,-9.460
0.778,0.036,-0.299,-27.954,122.864,-10.864
0.800,0.044,-0.306,-23.743,112.488,-13.367
0.810,0.033,-0.367,-17.334,103.333,-16.663
0.812,-0.007,-0.411,-11.658,91.858,-19.836
0.816,-0.046,-0.385,-5.676,77.454,-21.667
0.827,-0.072,-0.355,-1.099,65.796,-21.362
0.833,-0.112,-0.322,0.732,57.434,-20.935
0.843,-0.112,-0.334,0.916,51.086,-18.616
0.850,-0.115,-0.305,0.427,45.898,-16.052
0.862,-0.135,-0.261,-0.793,40.466,-14.038
0.861,-0.154,-0.254,-3.235,38.696,-11.841
0.870,-0.143,-0.266,-6.165,38.574,-8.179
0.892,-0.105,-0.226,-8.789,34.912,-4.639
0.913,-0.075,-0.219,-9.949,32.654,-2.747
0.924,-0.054,-0.200,-10.315,29.968,-2.319
0.935,-0.047,-0.181,-10.071,27.405,-2.319
0.937,-0.047,-0.200,-8.728,25.635,-2.747
0.940,-0.036,-0.219,-7.629,22.461,-3.540
0.942,-0.048,-0.209,-5.432,17.700,-4.700
0.939,-0.092,-0.168,-3.113,13.306,-6.165
0.938,-0.098,-0.126,-2.625,9.949,-5.676
0.949,-0.094,-0.104,-2.075,8.545,-4.395
0.962,-0.091,-0.086,-1.343,7.935,-3.662
0.959,-0.084,-0.079,-0.549,6.592,-3.296
0.950,-0.080,-0.095,-0.610,7.874,-2.930
0.954,-0.082,-0.087,-1.404,6.104,-2.869
0.964,-0.080,-0.055,-1.099,3.845,-2.747
0.964,-0.083,-0.060,0.061,4.395,-2.563
0.967,-0.091,-0.061,0.427,3.052,-2.625
0.952,-0.088,-0.079,0.977,4.028,-2.441
0.967,-0.086,-0.052,-0.244,1.526,-2.075
0.970,-0.062,-0.054,-1.831,0.000,-0.793
0.976,-0.051,-0.039,-2.075,-0.916,-0.427
0.978,-0.059,-0.008,-1.343,-1.892,-1.526
0.984,-0.057,0.009,-0.488,-2.869,-2.014
0.982,-0.072,0.016,-0.244,-2.747,-2.136
0.982,-0.071,0.030,0.366,-3.418,-1.892
0.982,-0.084,0.040,1.160,-2.930,-1.770
0.982,-0.085,0.034,1.465,-2.686,-1.404
0.982,-0.071,0.031,0.916,-2.747,-0.122
0.987,-0.068,0.051,1.099,-3.418,0.671
0.993,-0.050,0.082,2.136,-3.967,0.916
0.994,-0.045,0.074,2.380,-2.808,0.793
0.997,-0.045,0.053,2.747,-1.770,0.183
0.997,-0.057,0.064,2.319,-1.465,-0.427
0.999,-0.041,0.086,1.648,-1.526,0.000
1.002,-0.036,0.089,1.099,-0.732,-0.061
1.002,-0.040,0.075,1.343,-0.061,-0.610
0.999,-0.044,0.071,1.831,0.488,-0.916
0.994,-0.054,0.078,2.258,0.305,-0.916
0.991,-0.049,0.070,2.014,1.282,-0.427
0.993,-0.045,0.048,1.953,1.404,0.122
0.997,-0.056,0.082,1.587,0.488,0.183
0.999,-0.035,0.097,1.526,1.221,0.916
0.998,-0.033,0.080,1.892,1.526,0.732
0.997,-0.041,0.072,2.563,2.563,0.122
1.000,-0.034,0.069,1.892,2.747,0.183
1.001,-0.022,0.067,1.892,2.563,0.427
1.003,-0.008,0.069,1.526,2.808,0.366
1.009,0.000,0.067,1.343,2.991,-0.244
1.001,-0.010,0.039,1.465,3.906,-1.282
0.999,-0.030,0.027,1.160,3.601,-2.014
0.996,-0.033,0.028,0.549,3.601,-1.953
0.997,-0.026,0.036,-0.061,3.296,-1.770
0.994,-0.030,0.038,-0.305,3.174,-2.014
0.990,-0.041,0.033,-0.122,3.540,-2.197
0.988,-0.045,0.016,-0.122,3.601,-2.197
0.988,-0.050,0.022,-0.183,2.808,-2.197
0.990,-0.057,0.055,0.610,1.465,-2.136
0.989,-0.051,0.042,1.221,2.380,-1.953
0.985,-0.061,0.037,1.892,3.418,-2.075
0.988,-0.056,0.054,2.075,3.357,-1.953
0.999,-0.042,0.057,1.831,3.845,-1.587
1.000,-0.024,0.043,1.709,4.700,-1.831
0.999,-0.034,0.023,2.258,5.493,-2.197
0.993,-0.048,0.011,1.648,5.188,-2.563
0.992,-0.054,0.025,0.916,4.456,-2.441
0.992,-0.051,0.029,0.061,4.028,-2.258
0.987,-0.059,0.021,-0.366,4.517,-2.197
0.985,-0.067,0.023,-0.549,3.540,-2.197
0.985,-0.065,0.028,-0.488,2.747,-2.075
0.988,-0.061,0.019,-0.244,2.014,-1.770
0.989,-0.064,0.030,0.427,1.648,-1.648
0.985,-0.071,0.034,1.404,0.732,-1.770
0.979,-0.083,0.042,2.136,0.549,-1.892

0.544,-0.034,-1.744,-8.545,-111.450,-12.573
0.509,-0.044,-1.609,-7.263,-161.865,-16.479
0.421,-0.079,-1.559,-11.414,-199.341,-17.029
0.332,-0.128,-1.529,-14.832,-234.497,-18.799
0.247,-0.211,-1.284,-20.630,-270.752,-18.555
0.156,-0.309,-0.958,-29.541,-301.147,-15.381
0.096,-0.305,-0.773,-41.199,-318.481,-6.287
0.079,-0.274,-0.572,-49.011,-333.801,3.662
0.064,-0.204,-0.232,-49.927,-351.990,12.817
0.043,-0.082,0.122,-45.349,-364.136,21.790
0.000,-0.058,0.327,-34.973,-368.835,26.794
-0.049,-0.157,0.473,-18.188,-372.375,29.419
-0.078,-0.299,0.885,0.305,-381.409,36.011
-0.073,-0.229,1.251,19.958,-380.920,49.683
-0.064,-0.248,1.412,34.851,-364.929,59.021
-0.039,-0.064,1.491,40.833,-336.853,67.627
0.046,0.176,1.661,41.016,-316.406,72.266
0.131,0.404,1.893,37.842,-293.335,68.420
0.173,0.527,1.985,37.415,-267.944,56.519
0.176,0.516,1.953,36.377,-238.586,39.490
0.140,0.372,2.034,29.724,-217.163,21.912
0.104,0.253,2.054,12.512,-187.805,8.606
0.082,0.234,1.948,-13.184,-153.748,1.709
0.060,0.189,2.005,-39.490,-124.756,-3.540
0.056,0.054,2.103,-54.688,-107.056,-8.545
0.052,-0.024,2.231,-58.960,-89.111,-8.240
0.036,-0.031,2.172,-54.260,-66.162,-4.639
0.024,-0.065,2.028,-45.471,-45.471,-2.747
0.028,-0.132,2.010,-34.973,-29.236,-1.526
0.059,-0.106,2.107,-23.376,-21.606,3.357
0.093,-0.071,2.245,-9.155,-6.348,8.301
0.114,-0.038,2.200,7.385,15.198,11.047
0.138,0.005,2.033,22.522,35.522,12.512
0.162,0.017,1.985,32.959,50.049,12.573
0.186,0.040,1.987,39.734,68.726,12.390
0.194,0.062,1.876,44.495,87.097,11.719
0.181,0.085,1.613,45.837,110.474,10.254
0.186,0.041,1.393,41.931,122.864,7.385
0.203,0.020,1.356,35.095,127.014,6.531
0.237,0.021,1.392,29.114,129.211,7.812
0.255,0.002,1.410,25.879,135.132,7.629
0.280,-0.001,1.445,25.085,142.700,8.484
0.293,-0.005,1.433,24.353,153.931,9.277
0.317,0.049,1.475,25.696,162.842,10.742
0.358,0.126,1.564,25.391,175.293,11.536
0.387,0.128,1.573,26.794,188.965,9.399
0.368,0.094,1.483,30.762,211.182,6.897
0.349,0.086,1.334,34.424,228.333,6.226
0.358,0.059,1.187,32.288,243.530,5.127
0.368,0.079,0.965,28.381,256.042,5.371
0.367,0.043,0.842,21.423,259.216,3.967
0.391,0.015,0.821,13.489,257.568,3.479
0.422,0.001,0.748,6.348,258.179,4.639
0.434,0.029,0.618,0.000,261.719,6.165
0.467,0.079,0.513,-5.310,260.437,6.653
0.504,0.111,0.419,-7.996,257.141,4.517
0.530,0.137,0.412,-9.216,249.634,0.854
0.548,0.139,0.420,-9.583,245.239,-2.563
0.567,0.138,0.356,-10.620,243.713,-5.981
0.557,0.072,0.235,-7.141,244.568,-10.803
0.553,0.038,0.167,-4.578,241.577,-13.367
0.563,0.046,0.116,-5.737,236.755,-13.794
0.592,0.029,0.048,-6.592,230.896,-14.709
0.618,0.019,-0.005,-2.014,223.450,-15.747
0.613,-0.002,-0.095,2.930,216.553,-17.151
0.605,-0.032,-0.206,4.944,209.961,-18.311
0.626,-0.089,-0.226,4.333,199.341,-18.860
0.644,-0.077,-0.252,1.221,189.026,-15.930
0.673,-0.020,-0.292,-3.662,181.519,-13.062
0.726,0.031,-0.321,-7.324,172.424,-13.489
0.726,-0.044,-0.308,-6.470,162.598,-16.907
0.750,-0.024,-0.303,-4.395,154.724,-17.639
0.739,-0.002,-0.364,-2.991,150.330,-18.250
0.732,-0.063,-0.475,-1.953,145.081,-21.484
0.714,-0.142,-0.535,-1.160,136.292,-23.865
0.706,-0.199,-0.618,0.061,125.977,-22.949
0.707,-0.218,-0.688,-0.183,116.394,-19.348
0.709,-0.221,-0.718,-0.916,104.431,-15.137
0.714,-0.215,-0.769,-2.380,93.567,-11.108
0.723,-0.231,-0.813,-4.944,81.482,-7.690
0.736,-0.189,-0.907,-8.972,69.214,-3.845
0.757,-0.156,-0.994,-14.954,54.993,-0.977
0.767,-0.169,-0.960,-21.423,36.255,-0.183
0.784,-0.169,-0.857,-27.588,17.883,1.038
0.803,-0.145,-0.808,-32.532,5.188,2.747
0.811,-0.128,-0.824,-37.476,-3.601,3.906
0.809,-0.111,-0.767,-41.260,-14.954,4.761
0.847,-0.119,-0.585,-44.556,-28.137,4.639
0.876,-0.076,-0.516,-45.288,-34.729,4.944
0.889,-0.048,-0.485,-42.236,-39.429,3.906
0.904,-0.113,-0.365,-35.156,-45.776,0.000
0.910,-0.153,-0.244,-25.574,-49.805,-2.441
0.919,-0.168,-0.221,-14.282,-48.706,-2.869
0.913,-0.199,-0.188,-6.653,-45.166,-2.747
0.916,-0.193,-0.171,-2.747,-39.673,-2.197
0.923,-0.184,-0.173,-1.038,-34.302,-1.221
0.927,-0.185,-0.200,-1.526,-28.809,-0.305
0.932,-0.189,-0.164,-3.479,-25.513,1.282
0.941,-0.168,-0.144,-6.348,-22.217,3.723
0.956,-0.153,-0.146,-10.132,-18.433,5.554
0.960,-0.147,-0.088,-12.451,-17.212,6.165
0.968,-0.120,-0.080,-12.939,-14.282,6.470
0.969,-0.126,-0.103,-10.742,-11.658,5.737
0.982,-0.178,-0.042,-8.728,-11.353,4.761
0.979,-0.155,-0.048,-6.653,-8.728,6.470
0.983,-0.124,-0.051,-3.479,-6.287,8.179
0.983,-0.131,-0.075,-1.282,-5.371,7.507
0.981,-0.116,-0.082,-0.244,-5.249,7.446
0.993,-0.106,-0.080,-0.427,-5.981,7.568
0.989,-0.106,-0.091,-0.671,-5.310,7.568
0.989,-0.119,-0.075,-0.305,-5.981,7.385
0.986,-0.120,-0.040,0.732,-7.812,7.507
0.986,-0.110,-0.045,1.526,-7.019,8.057
0.997,-0.104,-0.039,1.953,-6.531,8.362
1.005,-0.106,0.016,1.953,-7.324,8.850
1.011,-0.068,0.024,2.197,-5.005,9.766
1.007,-0.066,-0.005,2.625,-1.770,9.399
1.004,-0.063,-0.030,2.258,0.305,8.667
1.007,-0.048,-0.033,1.160,1.099,8.545

0.302,0.395,1.865,17.883,-146.851,26.001
0.322,0.444,1.824,14.465,-128.357,19.409
0.328,0.419,1.870,12.634,-115.051,11.230
0.319,0.360,2.020,12.329,-105.042,3.235
0.312,0.251,2.111,12.878,-90.576,-2.625
0.291,0.193,2.098,10.315,-71.655,-5.554
0.287,0.134,2.119,6.836,-52.979,-5.859
0.273,0.112,2.050,8.118,-34.790,-3.601
0.289,0.148,2.157,7.935,-21.118,-1.282
0.329,0.207,2.279,9.583,-6.165,0.488
0.336,0.162,2.238,15.564,16.052,-2.380
0.318,0.108,2.154,23.865,39.368,-4.456
0.296,0.067,2.024,31.860,62.012,-4.089
0.286,0.045,1.909,38.696,83.984,-2.380
0.293,0.058,1.797,43.091,99.609,-0.061
0.292,0.049,1.655,46.448,113.281,1.709
0.294,0.056,1.520,46.753,128.174,3.479
0.300,0.082,1.380,44.617,137.756,5.920
0.312,0.085,1.266,39.368,146.667,7.263
0.323,0.081,1.193,34.241,150.269,7.996
0.346,0.125,1.164,28.442,149.231,9.399
0.391,0.149,1.181,21.179,148.315,9.460
0.420,0.172,1.185,18.005,151.794,8.057
0.436,0.166,1.177,16.724,157.593,6.042
0.440,0.160,1.103,18.127,161.499,3.540
0.440,0.151,1.027,20.874,163.879,1.465
0.449,0.108,0.973,23.926,165.283,-0.732
0.458,0.124,0.898,25.696,166.382,-0.488
0.456,0.117,0.807,28.259,170.349,-0.732
0.467,0.124,0.772,29.846,171.082,-1.770
0.492,0.144,0.795,27.954,167.786,-2.258
0.542,0.161,0.835,25.696,167.603,-2.869
0.561,0.140,0.768,24.902,173.523,-4.944
0.543,0.089,0.703,23.804,182.800,-7.507
0.523,0.023,0.656,21.790,188.599,-8.667
0.517,0.032,0.561,17.334,195.374,-7.446
0.544,0.062,0.542,11.841,200.684,-5.798
0.572,0.068,0.536,7.202,207.092,-6.348
0.584,0.077,0.451,4.028,213.440,-6.897
0.575,0.066,0.320,0.916,221.802,-8.606
0.562,0.036,0.172,-0.122,225.159,-10.620
0.558,-0.001,0.057,-3.601,223.022,-11.597
0.573,-0.027,-0.032,-7.935,220.154,-11.353
0.592,-0.018,-0.139,-12.207,214.661,-10.193
0.609,-0.037,-0.230,-15.869,207.947,-9.827
0.618,-0.080,-0.291,-18.555,196.167,-10.254
0.657,-0.042,-0.318,-21.423,187.134,-8.728
0.719,0.018,-0.302,-24.170,172.729,-7.629
0.754,0.054,-0.308,-22.949,164.001,-9.949
0.751,0.032,-0.344,-19.836,154.297,-14.526
0.756,-0.008,-0.398,-16.541,146.667,-19.165
0.776,-0.024,-0.450,-12.512,135.864,-20.813
0.792,-0.062,-0.432,-7.019,119.629,-22.034
0.785,-0.080,-0.405,-1.709,109.619,-22.644
0.785,-0.107,-0.441,4.395,101.501,-23.071
0.794,-0.140,-0.468,8.606,90.759,-23.132
0.795,-0.140,-0.514,11.841,84.412,-21.484
0.800,-0.145,-0.565,13.672,77.087,-19.714
0.804,-0.171,-0.585,11.292,67.505,-18.433
0.814,-0.167,-0.625,6.836,60.974,-15.930
0.834,-0.144,-0.624,2.563,49.805,-12.634
0.839,-0.157,-0.554,-1.099,41.626,-10.986
0.842,-0.172,-0.464,-4.272,32.837,-9.338
0.853,-0.173,-0.402,-7.080,30.640,-6.836
0.861,-0.165,-0.410,-8.057,28.992,-4.517
0.870,-0.164,-0.424,-7.751,26.611,-3.052
0.883,-0.161,-0.424,-8.484,24.597,-2.136
0.891,-0.165,-0.369,-9.033,18.982,-0.916
0.901,-0.142,-0.320,-9.277,16.907,0.732
0.910,-0.138,-0.328,-7.690,15.930,1.831
0.918,-0.137,-0.353,-5.920,13.794,1.892
0.923,-0.145,-0.339,-4.517,13.428,2.258
0.934,-0.135,-0.297,-4.333,8.667,2.930
0.942,-0.104,-0.264,-4.333,8.362,4.089
0.955,-0.087,-0.243,-4.517,5.798,3.784
0.974,-0.042,-0.204,-5.310,7.568,3.113
0.981,-0.021,-0.208,-4.944,6.104,1.099
0.977,-0.048,-0.259,-5.127,7.202,-1.953
0.960,-0.092,-0.264,-4.089,5.188,-4.089
0.963,-0.125,-0.218,-3.601,1.648,-4.578
0.964,-0.122,-0.184,-3.418,-0.916,-3.723
0.955,-0.141,-0.172,-2.014,-1.038,-2.991
0.948,-0.170,-0.179,-0.671,-3.418,-2.441
0.949,-0.168,-0.158,-0.671,-3.357,-0.977
0.960,-0.147,-0.122,-0.610,-2.991,1.953
0.977,-0.139,-0.080,-0.671,-5.188,3.784
0.986,-0.091,-0.065,-1.770,-2.380,5.005
0.990,-0.068,-0.100,-2.258,0.427,5.066
0.990,-0.072,-0.118,-2.869,1.953,3.967
0.981,-0.082,-0.128,-3.174,0.854,3.296
0.980,-0.094,-0.140,-4.150,2.319,3.418
0.983,-0.101,-0.128,-4.517,0.610,4.211
0.982,-0.098,-0.105,-4.944,-0.427,5.127
0.979,-0.092,-0.103,-5.310,0.061,6.042
0.990,-0.081,-0.090,-5.005,0.061,6.714
1.006,-0.055,-0.057,-5.188,0.122,7.263
1.014,-0.011,-0.058,-5.310,1.526,6.897
1.010,-0.008,-0.089,-4.333,2.625,5.188
1.001,-0.034,-0.093,-2.869,2.258,2.869
1.000,-0.055,-0.124,-1.160,2.258,1.648
0.999,-0.080,-0.135,0.183,0.977,1.465
0.998,-0.064,-0.090,0.488,-0.183,2.258
0.996,-0.054,-0.107,0.854,1.038,2.991
1.000,-0.047,-0.112,0.427,1.770,2.747
1.001,-0.031,-0.097,-0.183,1.953,2.625
1.004,-0.020,-0.089,-0.671,0.366,1.831
1.002,-0.033,-0.101,-0.488,3.296,0.732
1.001,-0.036,-0.120,-0.061,1.892,0.061
0.995,-0.045,-0.147,0.427,2.991,-0.244
0.989,-0.063,-0.136,0.916,-0.610,-0.549
0.986,-0.074,-0.132,1.282,0.244,-0.061
0.992,-0.069,-0.122,1.587,-2.625,0.793
0.996,-0.069,-0.105,1.221,-1.953,1.099
0.996,-0.069,-0.096,0.793,0.793,1.282
0.990,-0.061,-0.094,0.793,0.549,1.526
0.997,-0.040,-0.082,0.305,0.549,1.526
1.003,-0.031,-0.096,-0.061,2.502,0.793
1.000,-0.031,-0.108,-0.488,0.610,-0.305
0.997,-0.045,-0.121,-0.549,1.404,-1.465

0.491,-0.172,-2.414,-0.244,-7.935,-11.658
0.377,-0.208,-2.793,-13.000,-57.007,-11.414
0.311,-0.182,-2.682,-29.175,-123.596,-9.521
0.232,-0.293,-2.132,-41.809,-190.308,-11.536
0.209,-0.470,-1.636,-55.908,-229.004,-10.559
0.136,-0.551,-1.459,-62.683,-246.887,-2.808
0.053,-0.677,-1.291,-65.063,-260.193,8.179
-0.008,-0.669,-0.956,-69.214,-279.785,25.696
-0.021,-0.517,-0.582,-71.289,-295.593,48.035
0.044,-0.255,-0.127,-68.970,-314.148,67.688
0.131,0.016,0.274,-62.195,-320.801,81.177
0.207,0.172,0.492,-50.293,-317.627,84.473
0.245,0.231,0.642,-37.292,-314.575,81.787
0.281,0.254,0.907,-28.748,-309.143,77.759
0.368,0.377,1.159,-25.696,-300.171,75.684
0.412,0.454,1.150,-23.682,-285.278,72.266
0.410,0.460,1.089,-22.278,-272.400,65.735
0.413,0.375,1.247,-22.461,-268.250,57.922
0.407,0.326,1.312,-21.912,-259.216,52.795
0.426,0.378,1.363,-21.912,-243.591,51.636
0.421,0.355,1.442,-16.602,-229.065,47.241
0.419,0.288,1.461,-7.446,-215.210,41.687
0.405,0.295,1.555,4.089,-203.247,38.757
0.410,0.297,1.564,18.005,-189.392,35.278
0.413,0.268,1.460,34.668,-177.246,30.396
0.396,0.238,1.440,49.255,-170.471,25.269
0.371,0.174,1.474,58.899,-162.048,19.592
0.356,0.127,1.369,64.697,-151.978,15.381
0.372,0.101,1.259,65.186,-141.602,13.062
0.363,0.115,1.358,62.012,-133.057,12.207
0.349,0.096,1.433,57.312,-125.427,10.620
0.351,0.073,1.541,48.645,-113.586,8.118
0.371,0.062,1.666,39.673,-98.083,7.080
0.386,0.086,1.734,31.189,-78.430,6.653
0.397,0.124,1.737,23.560,-56.396,5.066
0.427,0.153,1.797,16.418,-35.706,2.380
0.439,0.134,1.913,13.428,-16.724,-1.587
0.422,0.096,1.955,15.198,3.662,-5.249
0.394,0.038,1.943,19.226,25.330,-8.118
0.378,0.010,1.926,23.560,45.593,-8.301
0.378,-0.001,1.907,26.733,64.270,-6.470
0.379,-0.020,1.924,28.931,79.712,-4.211
0.368,-0.033,1.874,30.640,94.788,-1.831
0.360,-0.050,1.789,31.738,109.009,1.282
0.386,-0.044,1.751,31.738,121.582,4.944
0.402,0.001,1.732,32.043,135.193,9.277
0.420,0.022,1.654,33.752,147.644,11.719
0.421,0.021,1.567,37.231,160.522,12.390
0.424,-0.004,1.433,37.903,173.706,12.695
0.430,0.015,1.283,38.818,180.481,14.648
0.447,0.023,1.161,37.598,186.096,16.418
0.460,0.055,1.042,32.104,190.796,17.395
0.470,0.061,0.963,25.330,193.604,17.517
0.504,0.103,0.941,14.526,194.153,16.846
0.555,0.158,0.908,4.883,195.557,15.747
0.569,0.141,0.865,2.380,196.960,11.047
0.555,0.095,0.791,2.808,198.914,5.859
0.555,0.067,0.701,1.160,200.928,2.747
0.573,0.055,0.629,-1.282,200.012,0.916
0.575,0.053,0.556,-3.601,198.181,-0.366
0.592,0.037,0.507,-6.042,196.655,-1.770
0.611,0.030,0.474,-10.254,195.740,-2.197
0.612,0.016,0.461,-11.658,195.801,-2.258
0.624,0.061,0.400,-11.047,199.341,-2.319
0.660,0.091,0.360,-12.268,200.867,-3.235
0.681,0.082,0.343,-11.719,199.158,-5.737
0.666,0.082,0.276,-10.437,198.425,-7.690
0.658,0.052,0.089,-9.888,199.219,-10.010
0.661,-0.000,0.005,-11.353,194.397,-12.573
0.666,-0.038,-0.019,-12.146,185.913,-12.817
0.666,-0.042,-0.106,-14.038,181.641,-11.597
0.690,-0.007,-0.160,-16.052,176.575,-10.376
0.715,0.023,-0.168,-16.663,169.800,-11.292
0.732,0.030,-0.222,-17.212,167.419,-13.489
0.729,0.021,-0.280,-17.700,164.490,-15.869
0.729,-0.010,-0.332,-16.296,157.288,-18.066
0.719,-0.062,-0.414,-14.954,146.912,-19.653
0.728,-0.111,-0.475,-15.259,138.245,-19.470
0.745,-0.122,-0.516,-15.137,129.272,-17.273
0.750,-0.110,-0.594,-14.099,120.056,-14.954
0.763,-0.112,-0.626,-13.550,105.774,-13.489
0.782,-0.114,-0.636,-14.282,92.957,-12.085
0.796,-0.092,-0.641,-14.832,83.679,-10.925
0.804,-0.082,-0.655,-13.428,73.364,-10.742
0.817,-0.095,-0.624,-13.855,59.998,-11.169
0.840,-0.083,-0.574,-14.709,47.607,-11.169
0.850,-0.091,-0.566,-15.198,42.664,-11.475
0.845,-0.113,-0.588,-15.930,34.912,-12.146
0.840,-0.153,-0.593,-16.296,28.381,-12.207
0.833,-0.190,-0.585,-16.357,23.132,-10.803
0.839,-0.187,-0.560,-15.747,13.794,-8.179
0.863,-0.161,-0.495,-15.076,4.578,-5.615
0.881,-0.157,-0.405,-12.939,-0.671,-4.395
0.886,-0.146,-0.365,-11.658,-0.183,-3.845
0.898,-0.152,-0.347,-10.620,0.732,-3.418
0.913,-0.151,-0.305,-8.728,-0.793,-2.930
0.921,-0.133,-0.266,-6.592,-2.319,-2.380
0.931,-0.112,-0.262,-5.859,-3.662,-2.258
0.942,-0.110,-0.251,-5.188,-2.808,-2.563
0.944,-0.122,-0.248,-3.357,-0.061,-3.235
0.948,-0.135,-0.239,-1.526,0.916,-3.540
0.934,-0.167,-0.258,-0.671,1.099,-3.479
0.927,-0.182,-0.246,-0.549,-0.916,-2.625
0.948,-0.159,-0.199,-1.587,-3.296,-1.099
0.964,-0.118,-0.183,-2.319,-0.305,0.366
0.961,-0.103,-0.180,-2.930,3.479,0.183
0.955,-0.123,-0.195,-3.540,4.456,-0.854
0.962,-0.120,-0.185,-3.540,2.625,-1.038
0.965,-0.112,-0.184,-3.479,1.221,-1.160
0.961,-0.111,-0.226,-3.479,-0.305,-1.587
0.958,-0.134,-0.206,-3.479,-1.587,-2.075
0.970,-0.124,-0.162,-3.662,-2.686,-1.587
0.977,-0.125,-0.145,-3.601,-2.197,-0.732
0.973,-0.131,-0.140,-3.479,-1.343,-0.366
0.963,-0.141,-0.144,-2.625,-1.831,0.244
0.961,-0.151,-0.152,-1.282,-3.540,0.854
0.972,-0.140,-0.124,-0.793,-4.272,2.197
0.978,-0.122,-0.122,-1.404,-3.723,3.357
0.984,-0.107,-0.106,-1.221,-3.174,3.784

0.378,-0.228,-3.223,19.043,5.005,-16.479
0.256,-0.342,-3.234,-11.108,-75.623,-16.541
0.218,-0.344,-2.501,-48.462,-162.415,-10.315
0.172,-0.388,-1.709,-71.533,-222.107,-3.723
0.154,-0.548,-1.200,-72.388,-248.535,-1.404
0.122,-0.776,-0.974,-65.552,-252.563,5.554
0.081,-0.828,-0.898,-56.580,-250.183,22.705
0.037,-0.857,-0.826,-46.265,-252.686,41.931
-0.041,-0.882,-0.846,-34.973,-257.141,61.523
-0.130,-0.749,-0.850,-28.381,-269.043,85.999
-0.137,-0.393,-0.384,-28.687,-295.959,111.816
-0.027,0.094,0.156,-30.640,-316.956,129.578
0.125,0.379,0.542,-29.602,-323.608,132.568
0.263,0.623,0.656,-23.682,-315.674,126.709
0.339,0.736,0.821,-15.198,-313.293,115.112
0.366,0.728,0.921,-6.897,-308.044,96.924
0.379,0.750,0.862,-2.991,-298.828,81.299
0.376,0.704,0.964,-3.235,-300.293,66.650
0.357,0.583,1.232,-4.822,-301.697,52.795
0.349,0.490,1.469,-8.179,-288.330,43.030
0.349,0.465,1.622,-9.583,-265.808,36.011
0.333,0.437,1.579,-5.737,-239.380,30.151
0.318,0.424,1.901,1.709,-228.516,25.757
0.332,0.450,2.219,14.954,-214.233,21.667
0.339,0.423,2.438,31.128,-191.956,17.578
0.330,0.391,2.595,45.959,-167.969,11.353
0.346,0.364,2.742,54.871,-143.005,7.751
0.377,0.400,2.940,55.359,-115.906,5.005
0.436,0.461,3.162,50.293,-83.130,1.404
0.492,0.529,3.222,41.931,-40.833,-4.333
0.517,0.500,3.160,34.912,3.540,-13.123
0.501,0.392,3.101,31.494,44.067,-22.583
0.482,0.276,3.127,31.860,81.970,-28.687
0.473,0.226,2.905,37.537,124.390,-30.640
0.425,0.140,2.526,50.171,165.344,-32.593
0.358,-0.007,2.208,63.049,199.341,-34.180
0.292,-0.074,1.863,69.153,226.135,-30.762
0.274,-0.104,1.553,70.190,245.972,-24.048
0.286,-0.074,1.276,67.932,257.385,-17.029
0.312,-0.061,1.051,64.880,260.803,-11.292
0.302,-0.054,0.814,59.448,261.108,-7.446
0.321,-0.045,0.613,54.321,261.475,-3.906
0.350,-0.028,0.465,50.415,256.592,-2.136
0.360,-0.085,0.374,50.354,248.718,-1.953
0.386,-0.099,0.276,47.974,238.770,0.549
0.444,-0.050,0.240,41.626,230.469,5.249
0.507,0.004,0.232,36.316,223.877,8.301
0.531,0.021,0.157,33.936,218.018,8.423
0.564,0.043,0.082,30.273,216.064,7.202
0.571,0.030,0.012,25.696,214.783,5.371
0.582,0.013,-0.094,19.592,208.679,4.333
0.599,0.024,-0.231,10.254,204.346,4.456
0.619,-0.022,-0.300,0.793,198.364,4.150
0.641,-0.060,-0.265,-11.780,186.157,4.761
0.669,-0.024,-0.279,-23.621,179.260,7.935
0.703,-0.040,-0.275,-33.752,175.476,8.789
0.718,-0.024,-0.288,-39.734,168.030,8.301
0.734,0.006,-0.323,-41.504,165.955,7.324
0.752,0.014,-0.364,-40.405,157.532,4.761
0.760,-0.003,-0.383,-34.180,145.752,1.160
0.768,-0.030,-0.409,-23.560,135.071,-1.831
0.782,-0.058,-0.389,-14.587,123.169,-3.845
0.781,-0.075,-0.387,-7.080,115.356,-5.310
0.778,-0.116,-0.452,-2.319,108.215,-6.348
0.777,-0.131,-0.517,0.000,103.027,-5.737
0.807,-0.098,-0.507,-0.183,92.834,-3.357
0.811,-0.056,-0.543,-0.671,86.853,-2.258
0.828,-0.050,-0.576,-1.221,78.613,-2.258
0.839,-0.033,-0.604,-2.014,70.801,-2.441
0.847,-0.040,-0.653,-3.967,60.486,-3.113
0.855,-0.070,-0.616,-6.104,50.293,-3.601
0.861,-0.083,-0.514,-7.629,38.757,-3.052
0.879,-0.091,-0.394,-7.568,31.372,-2.319
0.888,-0.082,-0.369,-7.080,31.067,-1.648
0.897,-0.065,-0.381,-5.737,27.893,-0.793
0.911,-0.050,-0.387,-3.479,26.550,-0.549
0.926,-0.050,-0.354,-0.488,20.203,-1.221
0.924,-0.046,-0.344,0.732,19.714,-1.648
0.924,-0.062,-0.315,2.319,17.334,-2.258
0.938,-0.061,-0.329,2.319,18.066,-2.319
0.940,-0.043,-0.344,2.441,18.982,-2.258
0.927,-0.060,-0.340,2.563,14.954,-2.563
0.927,-0.071,-0.354,1.648,15.137,-2.808
0.934,-0.069,-0.342,0.305,10.132,-2.380
0.936,-0.069,-0.315,0.305,9.033,-2.197
0.932,-0.085,-0.313,0.854,6.165,-2.136
0.933,-0.075,-0.348,-0.366,6.592,-1.587
0.945,-0.053,-0.368,-2.625,6.042,-0.671
0.951,-0.057,-0.322,-4.028,-0.305,-0.977
0.951,-0.065,-0.299,-5.554,-0.793,-0.977
0.959,-0.062,-0.273,-7.690,-2.747,-0.977
0.968,-0.050,-0.247,-8.789,-2.625,-1.099
0.966,-0.071,-0.212,-7.935,-1.465,-1.831
0.961,-0.086,-0.197,-6.165,-2.014,-2.136
0.959,-0.077,-0.222,-4.456,-1.343,-2.197
0.961,-0.072,-0.244,-3.113,1.160,-2.197
0.959,-0.072,-0.227,-1.343,-1.709,-2.258
0.958,-0.083,-0.210,0.305,-2.075,-2.380
0.957,-0.082,-0.217,0.366,-0.061,-2.380
0.966,-0.077,-0.240,-0.549,-1.282,-2.258
0.967,-0.073,-0.254,-1.831,0.977,-2.197
0.967,-0.099,-0.213,-1.892,-1.282,-2.136
0.954,-0.106,-0.217,-2.747,-1.404,-1.892
0.953,-0.120,-0.238,-2.686,2.075,-1.282
0.957,-0.109,-0.214,-1.831,-1.221,-0.122
0.964,-0.083,-0.213,-1.526,-1.770,1.221
0.959,-0.080,-0.227,-0.854,0.549,1.404
0.957,-0.093,-0.228,-0.122,-1.770,0.732
0.961,-0.097,-0.225,-0.183,-1.526,0.916
0.969,-0.089,-0.221,-0.183,-0.732,1.709
0.970,-0.083,-0.202,-0.977,-3.418,2.502
0.971,-0.076,-0.172,-1.770,-2.625,2.686
0.979,-0.063,-0.152,-2.197,-1.465,3.296
0.997,-0.026,-0.146,-2.563,-1.831,3.357
1.007,-0.004,-0.160,-2.502,-0.061,2.563
1.004,-0.002,-0.181,-3.296,0.061,0.732
0.998,-0.024,-0.192,-3.418,0.732,-1.099
0.993,-0.049,-0.183,-3.296,0.732,-2.136
0.990,-0.059,-0.185,-2.808,0.061,-2.197

0.457,-0.075,-2.530,-13.489,-58.105,-19.104
0.368,-0.091,-2.309,-34.546,-119.812,-20.203
0.267,-0.139,-2.105,-49.500,-170.105,-22.156
0.175,-0.181,-2.168,-60.120,-205.688,-21.606
0.072,-0.249,-1.977,-67.200,-246.765,-21.118
-0.031,-0.516,-1.547,-67.139,-288.879,-22.583
-0.110,-0.719,-1.236,-64.941,-313.416,-13.977
-0.210,-0.679,-1.357,-62.622,-323.730,6.653
-0.301,-0.597,-1.389,-66.833,-341.370,28.442
-0.356,-0.518,-0.795,-73.120,-376.953,47.485
-0.361,-0.295,-0.274,-71.594,-401.672,68.359
-0.302,-0.016,0.056,-60.913,-412.598,84.717
-0.222,0.061,0.698,-41.321,-425.110,90.210
-0.108,0.141,1.145,-14.099,-423.706,90.149
-0.015,0.237,1.215,15.564,-403.748,88.440
0.013,0.360,1.064,40.588,-381.592,82.336
0.049,0.504,1.024,47.424,-365.417,73.730
0.040,0.514,1.243,40.771,-355.347,60.120
0.033,0.457,1.516,29.785,-342.529,45.776
0.054,0.353,1.917,19.409,-321.655,33.691
0.043,0.262,2.318,8.545,-288.208,25.330
0.040,0.305,2.520,-8.057,-242.493,21.851
0.050,0.373,2.755,-30.029,-197.266,18.616
0.081,0.479,3.105,-54.504,-154.480,14.526
0.174,0.568,3.506,-73.059,-117.065,9.460
0.237,0.664,3.876,-74.402,-78.003,2.197
0.251,0.605,4.000,-57.312,-38.025,-7.751
0.269,0.467,4.000,-30.884,5.310,-17.822
0.283,0.334,4.000,-4.456,45.227,-21.790
0.283,0.322,3.870,19.836,91.614,-20.874
0.290,0.363,3.520,42.969,139.771,-18.982
0.282,0.346,3.180,59.509,187.927,-20.813
0.269,0.290,2.861,72.205,227.051,-24.658
0.225,0.238,2.383,79.651,264.404,-28.687
0.162,0.133,1.862,80.566,297.974,-31.555
0.086,0.041,1.436,75.439,317.139,-31.799
0.079,0.026,1.058,69.275,324.707,-28.503
0.117,0.033,0.755,63.171,325.073,-24.841
0.145,0.076,0.529,59.082,319.031,-22.339
0.162,0.050,0.389,58.838,306.946,-22.583
0.158,-0.000,0.283,60.059,290.833,-23.621
0.173,-0.065,0.173,61.890,278.381,-23.499
0.225,-0.097,0.092,63.110,268.921,-20.203
0.269,-0.094,0.020,62.256,258.972,-15.320
0.283,-0.112,-0.169,61.523,256.958,-11.353
0.300,-0.165,-0.374,56.885,249.573,-8.057
0.353,-0.196,-0.518,46.509,238.464,-3.479
0.419,-0.183,-0.616,33.142,226.990,3.052
0.490,-0.136,-0.637,20.508,209.778,9.827
0.552,-0.079,-0.638,8.423,195.129,14.221
0.628,-0.003,-0.677,-4.272,184.143,15.991
0.670,0.050,-0.826,-17.761,173.218,14.893
0.702,0.052,-0.921,-29.419,156.128,11.414
0.758,0.071,-0.796,-35.828,130.371,8.606
0.823,0.091,-0.596,-39.795,106.812,4.944
0.852,0.085,-0.487,-37.781,92.896,-0.488
0.852,0.028,-0.436,-29.785,84.473,-7.019
0.853,-0.027,-0.396,-20.813,76.355,-12.878
0.873,-0.039,-0.371,-12.085,69.885,-16.052
0.877,-0.062,-0.299,-4.089,62.866,-18.494
0.856,-0.102,-0.322,2.991,61.829,-20.813
0.843,-0.174,-0.353,6.531,60.608,-22.095
0.870,-0.156,-0.328,5.127,58.411,-19.470
0.890,-0.134,-0.277,3.418,54.810,-16.113
0.884,-0.140,-0.257,3.479,54.688,-14.893
0.871,-0.182,-0.291,3.540,55.176,-14.709
0.853,-0.232,-0.383,2.991,58.105,-13.123
0.860,-0.238,-0.417,-0.366,53.101,-9.155
0.882,-0.178,-0.403,-5.005,49.805,-3.906
0.897,-0.136,-0.422,-8.545,43.518,-1.648
0.896,-0.146,-0.440,-10.376,40.344,-1.526
0.900,-0.171,-0.451,-11.292,33.875,-1.282
0.915,-0.136,-0.420,-11.292,26.672,0.366
0.926,-0.124,-0.354,-9.033,19.836,0.427
0.919,-0.159,-0.348,-4.883,15.686,-1.404
0.907,-0.177,-0.364,-0.854,13.184,-1.648
0.917,-0.157,-0.307,2.441,6.775,-0.671
0.941,-0.123,-0.243,4.150,3.601,-0.122
0.949,-0.114,-0.242,5.188,3.357,-0.793
0.936,-0.137,-0.265,4.944,3.479,-2.075
0.931,-0.157,-0.246,3.235,2.380,-2.258
0.935,-0.158,-0.246,1.709,1.892,-2.075
0.935,-0.158,-0.274,0.610,1.038,-1.526
0.923,-0.179,-0.270,-0.549,0.122,-1.282
0.930,-0.196,-0.258,-1.465,-1.404,-0.183
0.935,-0.190,-0.244,-2.136,-2.625,1.587
0.941,-0.179,-0.259,-2.930,-2.869,3.418
0.936,-0.173,-0.260,-3.784,-2.991,4.822
0.942,-0.165,-0.245,-5.127,-4.517,6.104
0.957,-0.134,-0.208,-5.798,-7.202,7.507
0.979,-0.094,-0.155,-5.615,-8.179,8.118
0.992,-0.074,-0.118,-5.493,-7.812,7.263
0.991,-0.076,-0.116,-4.700,-6.042,5.493
0.990,-0.094,-0.113,-3.662,-4.150,3.601
0.983,-0.099,-0.139,-2.747,-3.967,2.686
0.979,-0.124,-0.136,-1.648,-4.333,1.892
0.982,-0.109,-0.108,-0.549,-5.310,2.075
0.989,-0.100,-0.118,0.183,-4.089,1.953
0.993,-0.100,-0.132,0.000,-4.150,0.977
0.996,-0.092,-0.112,0.366,-3.784,0.488
0.994,-0.124,-0.073,0.488,-4.578,-0.183
0.986,-0.130,-0.098,-0.061,-1.587,-0.244
0.981,-0.142,-0.127,-0.977,-0.854,0.549
0.983,-0.145,-0.104,-1.709,-1.648,1.953
0.982,-0.132,-0.096,-2.258,-1.465,3.662
0.981,-0.134,-0.102,-2.258,-1.587,4.639
0.986,-0.119,-0.088,-1.831,0.366,5.249
0.987,-0.101,-0.105,-1.038,-1.160,5.615
0.995,-0.098,-0.092,-0.916,-1.465,5.188
0.998,-0.094,-0.078,-0.305,-0.366,4.822
0.996,-0.086,-0.098,0.000,0.244,4.272
1.001,-0.091,-0.081,-0.305,0.854,3.784
1.005,-0.076,-0.074,-0.549,0.916,3.784
1.003,-0.067,-0.082,-1.526,3.357,3.723
1.001,-0.066,-0.089,-1.709,2.563,2.686
0.995,-0.086,-0.107,-1.404,4.883,1.770
0.991,-0.100,-0.122,-1.221,3.113,1.343
0.988,-0.108,-0.114,-1.526,3.113,1.648
0.984,-0.104,-0.115,-1.343,4.578,2.380

0.275,0.027,-3.365,44.312,-62.256,-7.080
0.139,-0.045,-3.500,21.606,-142.029,-11.108
0.009,-0.141,-2.843,-8.728,-231.506,-11.841
-0.110,-0.348,-1.956,-32.227,-299.438,-9.949
-0.197,-0.387,-1.521,-45.166,-330.261,-0.061
-0.225,-0.428,-1.325,-53.101,-345.764,13.672
-0.273,-0.396,-1.109,-58.716,-360.657,28.076
-0.351,-0.289,-1.017,-60.730,-374.878,44.006
-0.427,-0.211,-0.710,-58.716,-394.104,57.068
-0.499,-0.077,-0.429,-52.002,-416.016,67.993
-0.534,-0.003,0.013,-41.199,-432.678,75.439
-0.472,0.026,0.837,-25.452,-453.308,78.735
-0.281,0.261,1.532,-7.446,-452.087,84.045
-0.045,0.408,2.101,6.226,-429.260,81.665
0.103,0.584,2.186,15.076,-387.024,73.486
0.130,0.633,1.858,9.827,-338.623,59.875
0.187,0.655,1.929,-9.033,-304.138,43.640
0.214,0.728,2.285,-27.466,-280.640,28.625
0.255,0.651,2.557,-35.583,-252.136,11.292
0.240,0.530,2.772,-28.870,-218.323,-4.089
0.194,0.427,2.887,-13.123,-186.829,-14.771
0.153,0.328,3.067,-2.502,-156.860,-21.545
0.147,0.266,3.369,2.136,-130.554,-24.170
0.173,0.262,3.743,4.517,-98.938,-23.926
0.210,0.337,3.995,8.545,-56.519,-22.278
0.255,0.374,4.000,12.512,-9.155,-23.376
0.307,0.382,4.000,19.287,45.288,-27.405
0.322,0.362,4.000,31.799,105.957,-32.410
0.274,0.323,3.700,49.316,169.800,-39.673
0.197,0.255,3.124,66.223,228.271,-45.959
0.116,0.079,2.641,72.876,273.315,-51.025
0.040,-0.031,2.171,73.303,309.937,-49.805
-0.025,-0.078,1.668,71.228,341.919,-43.457
-0.051,-0.103,1.194,66.895,362.122,-36.133
-0.083,-0.147,0.656,67.810,368.469,-30.884
-0.075,-0.215,0.316,68.237,358.032,-26.733
-0.025,-0.248,0.165,66.589,335.510,-19.592
0.046,-0.182,0.052,62.561,313.904,-10.681
0.140,-0.123,-0.081,59.509,296.631,-3.540
0.198,-0.116,-0.213,57.617,282.654,-1.404
0.240,-0.098,-0.397,52.856,271.790,2.197
0.303,-0.059,-0.474,44.067,253.662,5.554
0.370,-0.055,-0.548,34.729,234.558,7.324
0.429,-0.061,-0.650,26.062,216.492,8.423
0.497,-0.042,-0.693,16.113,199.158,9.949
0.563,-0.028,-0.739,6.348,183.472,11.230
0.625,-0.006,-0.736,-6.104,163.513,11.658
0.686,0.025,-0.715,-19.836,148.621,11.780
0.737,0.020,-0.616,-32.166,132.935,10.376
0.767,-0.010,-0.518,-41.443,122.437,7.751
0.805,-0.014,-0.474,-47.180,112.854,6.042
0.828,-0.008,-0.439,-48.340,105.957,4.395
0.833,-0.024,-0.420,-43.030,101.013,1.526
0.833,-0.076,-0.437,-36.682,94.116,-1.526
0.839,-0.108,-0.405,-31.555,84.106,-2.625
0.854,-0.095,-0.368,-26.550,77.515,-2.319
0.865,-0.108,-0.334,-19.531,74.646,-2.563
0.868,-0.118,-0.314,-14.648,69.519,-3.174
0.866,-0.092,-0.339,-11.536,69.519,-2.808
0.869,-0.114,-0.360,-6.897,65.063,-3.540
0.861,-0.136,-0.409,-3.601,60.120,-4.517
0.846,-0.154,-0.485,-1.160,58.044,-3.723
0.851,-0.193,-0.500,0.183,48.767,-2.563
0.865,-0.184,-0.477,-1.282,42.053,0.122
0.884,-0.162,-0.433,-4.089,33.997,3.723
0.902,-0.137,-0.376,-7.324,30.762,6.714
0.923,-0.102,-0.280,-10.620,25.635,8.301
0.949,-0.044,-0.256,-12.573,25.146,9.094
0.956,-0.024,-0.263,-11.780,22.766,7.385
0.959,-0.040,-0.270,-9.155,22.278,4.028
0.957,-0.042,-0.284,-7.324,18.738,1.404
0.947,-0.063,-0.295,-4.578,17.395,-1.099
0.952,-0.099,-0.294,-0.671,10.620,-2.747
0.960,-0.102,-0.229,1.831,6.592,-2.991
0.958,-0.116,-0.177,3.601,2.747,-3.296
0.943,-0.145,-0.194,5.310,5.371,-3.723
0.939,-0.163,-0.206,5.920,4.456,-2.808
0.943,-0.147,-0.209,4.456,2.441,-1.099
0.947,-0.141,-0.226,2.869,3.967,0.671
0.947,-0.143,-0.183,1.282,0.427,1.953
0.952,-0.127,-0.162,0.061,-0.610,3.235
0.961,-0.120,-0.158,-0.854,3.174,4.272
0.963,-0.108,-0.158,-1.099,2.869,4.944
0.970,-0.077,-0.176,-1.709,4.639,5.371
0.981,-0.078,-0.188,-1.831,5.981,4.944
0.985,-0.075,-0.174,-1.587,3.052,4.272
0.981,-0.062,-0.178,-1.465,1.160,4.089
0.989,-0.076,-0.145,-1.709,2.625,3.052
0.993,-0.061,-0.142,-1.404,1.831,2.686
0.990,-0.054,-0.161,-1.099,2.319,2.075
0.977,-0.093,-0.161,0.977,2.747,0.549
0.972,-0.092,-0.168,2.014,-0.366,0.244
0.975,-0.086,-0.174,2.747,0.183,0.732
0.973,-0.092,-0.169,3.418,-1.770,0.549
0.975,-0.089,-0.168,3.174,-2.869,0.793
0.975,-0.090,-0.162,2.380,-1.587,1.160
0.973,-0.101,-0.144,1.648,-4.456,1.465
0.981,-0.095,-0.134,0.610,-4.456,2.136
0.989,-0.095,-0.107,0.122,-1.831,2.991
0.998,-0.055,-0.092,-0.061,-3.174,3.601
1.004,-0.045,-0.083,-0.977,-0.122,3.357
1.000,-0.041,-0.083,-0.488,-0.366,1.892
0.991,-0.057,-0.130,-0.366,2.747,0.732
0.982,-0.089,-0.150,-0.122,2.136,-0.183
0.982,-0.084,-0.144,0.000,1.282,0.366
0.985,-0.075,-0.126,1.038,0.366,1.160
0.990,-0.068,-0.111,1.831,-1.099,1.282
0.996,-0.070,-0.110,2.686,0.549,1.282
0.981,-0.076,-0.124,3.296,-1.648,1.221
0.990,-0.076,-0.117,2.075,-0.366,1.404
0.991,-0.058,-0.115,1.343,-1.160,2.319
0.995,-0.045,-0.115,0.854,-0.793,2.319
0.994,-0.047,-0.117,0.916,-1.770,1.648
0.996,-0.057,-0.122,0.854,-2.686,0.916
0.996,-0.065,-0.094,0.488,-1.404,0.610
0.997,-0.072,-0.084,0.732,-2.319,0.488
0.998,-0.068,-0.090,0.671,-2.747,0.549
0.999,-0.073,-0.089,-0.183,-1.221,0.916
0.990,-0.069,-0.092,-0.916,1.282,1.587

0.411,-0.073,-2.376,-6.531,-81.116,-26.184
0.350,-0.182,-2.089,-23.987,-135.010,-29.785
0.310,-0.276,-1.773,-42.664,-173.340,-28.503
0.263,-0.377,-1.469,-55.969,-198.242,-24.048
0.194,-0.529,-1.317,-58.777,-215.576,-19.104
0.108,-0.646,-1.263,-57.861,-229.004,-9.094
0.017,-0.604,-1.373,-59.509,-241.394,7.629
-0.068,-0.542,-1.361,-64.575,-261.292,25.085
-0.131,-0.441,-1.044,-71.228,-295.410,42.542
-0.141,-0.275,-0.548,-76.050,-323.914,60.730
-0.110,-0.168,0.079,-72.510,-347.351,72.876
-0.043,-0.105,0.559,-56.824,-352.905,79.712
0.013,-0.073,0.856,-32.104,-345.154,84.351
0.073,-0.020,1.044,-5.859,-334.106,87.952
0.127,0.162,1.016,14.282,-316.284,90.759
0.154,0.349,0.791,23.437,-296.875,89.722
0.205,0.547,0.831,19.043,-287.537,83.252
0.240,0.654,1.071,8.118,-285.339,70.740
0.251,0.669,1.361,-1.709,-279.907,54.626
0.257,0.674,1.696,-8.911,-271.667,39.124
0.245,0.579,2.076,-15.625,-256.531,24.658
0.228,0.483,2.486,-30.457,-230.530,14.221
0.242,0.539,2.977,-49.988,-204.651,11.536
0.341,0.668,3.531,-69.702,-173.035,10.559
0.457,0.776,4.000,-77.942,-138.428,6.409
0.501,0.795,4.000,-64.026,-95.825,-2.197
0.513,0.707,4.000,-38.025,-46.326,-13.123
0.512,0.593,4.000,-8.972,7.996,-21.912
0.505,0.503,4.000,14.587,61.768,-26.123
0.460,0.364,3.966,34.180,117.554,-29.541
0.389,0.327,3.440,50.964,181.519,-30.273
0.304,0.278,2.778,63.354,239.990,-30.640
0.216,0.150,2.227,68.054,278.076,-33.752
0.142,0.053,1.705,66.528,304.626,-33.020
0.118,0.024,1.276,59.143,320.740,-28.442
0.129,0.061,0.994,54.688,319.885,-23.437
0.140,0.101,0.828,54.688,312.195,-21.362
0.153,0.134,0.696,58.533,306.396,-21.912
0.167,0.109,0.563,63.782,301.086,-24.658
0.168,0.041,0.408,70.007,297.241,-27.344
0.157,-0.031,0.240,76.660,293.396,-27.466
0.149,-0.078,0.025,80.688,286.804,-24.902
0.184,-0.105,-0.152,80.505,277.283,-20.508
0.239,-0.126,-0.183,75.378,264.038,-15.137
0.297,-0.084,-0.223,66.895,253.723,-8.362
0.352,-0.039,-0.319,57.129,248.962,-3.113
0.374,-0.020,-0.519,45.959,246.399,-1.404
0.399,-0.058,-0.798,36.072,237.122,-0.366
0.449,-0.090,-0.992,26.794,214.905,2.563
0.522,-0.070,-1.026,13.062,184.021,8.301
0.606,-0.031,-0.956,0.183,152.527,13.184
0.668,0.042,-0.937,-11.353,131.775,15.808
0.730,0.110,-0.941,-22.217,115.295,15.442
0.790,0.180,-0.801,-30.701,98.145,11.963
0.826,0.192,-0.663,-34.485,83.862,5.676
0.829,0.158,-0.635,-34.668,75.439,-1.587
0.836,0.107,-0.616,-32.532,65.063,-7.812
0.846,0.030,-0.529,-28.809,52.551,-13.550
0.853,-0.006,-0.485,-24.048,47.607,-16.052
0.857,-0.070,-0.458,-18.616,45.227,-18.005
0.847,-0.134,-0.451,-13.062,41.016,-18.677
0.852,-0.150,-0.440,-8.057,33.936,-16.846
0.855,-0.155,-0.390,-3.357,29.358,-14.221
0.849,-0.166,-0.372,2.014,28.381,-11.597
0.851,-0.193,-0.358,5.920,26.550,-8.972
0.863,-0.165,-0.348,7.324,23.621,-5.066
0.886,-0.133,-0.300,6.775,21.484,-2.380
0.903,-0.108,-0.286,4.761,25.452,-1.160
0.907,-0.073,-0.332,3.113,29.724,0.122
0.906,-0.074,-0.412,2.075,29.663,-0.427
0.909,-0.106,-0.424,-0.244,24.353,-1.526
0.916,-0.127,-0.391,-2.014,21.423,-1.221
0.924,-0.111,-0.394,-3.601,18.005,0.000
0.927,-0.095,-0.333,-3.052,10.925,0.854
0.931,-0.123,-0.263,-1.282,4.089,-0.732
0.944,-0.113,-0.243,0.549,4.822,-0.732
0.951,-0.114,-0.198,2.136,4.883,-0.610
0.953,-0.092,-0.197,2.136,2.869,-0.793
0.956,-0.098,-0.223,1.587,4.395,-1.526
0.949,-0.117,-0.207,1.282,6.714,-2.258
0.945,-0.108,-0.208,1.038,8.667,-2.258
0.957,-0.101,-0.247,-0.183,7.568,-2.258
0.958,-0.136,-0.239,-1.160,6.226,-2.869
0.944,-0.138,-0.232,-1.526,8.789,-2.808
0.949,-0.128,-0.231,-2.136,9.644,-2.197
0.951,-0.133,-0.245,-2.502,8.057,-2.075
0.945,-0.141,-0.254,-2.075,5.920,-1.465
0.944,-0.130,-0.247,0.244,2.380,-0.427
0.953,-0.139,-0.206,2.502,-1.648,-0.061
0.964,-0.100,-0.161,4.395,-2.869,0.916
0.973,-0.079,-0.167,6.348,-1.465,0.977
0.978,-0.086,-0.202,6.775,1.404,-0.122
0.977,-0.082,-0.215,5.920,3.174,-0.122
0.979,-0.085,-0.171,5.188,-0.305,-0.122
0.984,-0.091,-0.128,3.174,-1.770,-0.183
0.984,-0.069,-0.173,0.671,2.258,0.122
0.981,-0.071,-0.207,-0.610,4.883,-0.427
0.983,-0.098,-0.162,-0.977,5.249,-0.977
0.980,-0.083,-0.169,-1.099,4.517,-0.427
0.969,-0.098,-0.195,-1.282,3.723,-0.488
0.963,-0.120,-0.214,-0.977,2.258,-0.793
0.964,-0.121,-0.228,-0.916,1.160,0.305
0.964,-0.110,-0.194,0.427,0.671,1.343
0.970,-0.104,-0.155,1.892,0.549,1.831
0.976,-0.082,-0.160,1.648,0.000,2.136
0.973,-0.083,-0.184,1.404,-1.160,1.770
0.981,-0.084,-0.159,0.916,-2.686,1.404
0.986,-0.086,-0.138,-0.488,-1.587,1.526
0.990,-0.081,-0.140,-1.709,1.953,1.709
0.982,-0.085,-0.169,-2.197,3.052,1.953
0.977,-0.095,-0.184,-2.136,2.502,1.648
0.977,-0.090,-0.186,-1.221,3.418,2.319
0.978,-0.087,-0.173,0.000,0.610,2.869
0.982,-0.088,-0.155,0.244,-1.770,3.235
0.979,-0.079,-0.161,-0.244,-2.380,3.723
0.982,-0.062,-0.164,-1.038,-2.686,4.272
0.994,-0.047,-0.135,-1.587,-2.014,4.150
0.995,-0.037,-0.140,-1.831,-0.671,3.418
0.998,-0.030,-0.158,-1.953,1.099,2.441

0.546,-0.106,-2.039,5.249,-38.452,-7.874
0.497,-0.187,-1.970,-7.935,-78.796,-8.911
0.435,-0.217,-1.782,-24.109,-115.540,-7.935
0.405,-0.266,-1.618,-37.598,-144.714,-5.066
0.335,-0.341,-1.516,-45.898,-170.715,-1.953
0.288,-0.371,-1.320,-54.382,-194.946,4.333
0.227,-0.385,-1.315,-66.345,-206.726,14.465
0.172,-0.325,-1.092,-73.059,-226.562,25.146
0.123,-0.361,-0.978,-74.524,-244.080,33.020
0.095,-0.309,-0.899,-79.346,-258.118,44.128
0.094,-0.158,-0.660,-83.374,-280.151,57.861
0.106,-0.049,-0.198,-82.642,-300.476,67.383
0.118,0.022,0.216,-73.425,-314.087,71.899
0.136,0.045,0.356,-56.519,-311.829,74.097
0.119,0.010,0.330,-33.875,-306.030,75.500
0.072,-0.037,0.454,-11.536,-311.279,77.576
0.019,-0.057,0.642,7.202,-320.435,81.909
0.003,-0.030,0.906,21.912,-325.806,86.914
0.054,0.149,1.199,33.264,-326.660,93.140
0.186,0.423,1.591,41.870,-323.425,96.497
0.334,0.633,1.933,51.697,-308.472,90.637
0.465,0.766,2.152,58.472,-285.095,75.928
0.505,0.766,2.278,62.256,-258.301,55.542
0.476,0.710,2.236,61.707,-221.680,34.119
0.439,0.624,2.226,52.063,-191.284,15.808
0.426,0.476,2.421,36.804,-170.898,1.648
0.443,0.400,2.741,18.860,-145.325,-5.188
0.486,0.380,3.133,3.601,-118.469,-8.057
0.526,0.339,3.358,-6.104,-78.064,-12.268
0.517,0.307,3.276,-3.235,-32.471,-15.869
0.506,0.208,3.183,7.263,9.399,-19.897
0.500,0.164,3.104,23.376,42.419,-21.423
0.499,0.189,3.013,38.452,79.956,-20.020
0.514,0.184,2.930,48.340,113.525,-20.325
0.512,0.226,2.808,55.359,150.085,-21.484
0.482,0.236,2.588,59.021,192.627,-24.048
0.417,0.135,2.256,60.242,232.117,-27.466
0.332,0.033,1.891,56.152,267.578,-27.893
0.264,-0.010,1.484,49.561,299.011,-23.743
0.206,-0.050,1.028,43.213,320.129,-19.104
0.184,-0.108,0.666,34.058,324.463,-14.709
0.203,-0.118,0.478,24.475,315.308,-8.972
0.235,-0.107,0.391,19.165,301.392,-4.150
0.278,-0.074,0.279,14.465,290.161,-0.854
0.329,-0.036,0.124,11.658,280.334,2.258
0.369,-0.016,0.005,12.451,270.935,3.357
0.386,-0.033,-0.126,14.343,263.550,3.357
0.402,-0.051,-0.294,13.672,253.662,3.662
0.435,-0.034,-0.429,11.292,237.610,4.211
0.490,-0.013,-0.504,8.484,218.750,4.333
0.542,-0.033,-0.501,4.944,202.087,3.540
0.594,0.001,-0.493,0.488,186.462,3.967
0.646,0.034,-0.518,-4.639,174.194,3.723
0.689,0.054,-0.530,-10.620,160.950,1.953
0.709,0.040,-0.558,-14.709,150.330,-0.732
0.733,0.006,-0.582,-17.029,136.475,-2.563
0.751,-0.013,-0.547,-18.127,122.009,-3.235
0.777,-0.011,-0.486,-18.005,107.971,-3.601
0.811,-0.031,-0.422,-18.738,101.379,-4.150
0.828,0.007,-0.410,-18.127,94.543,-4.639
0.837,-0.014,-0.387,-15.442,88.074,-6.958
0.831,-0.011,-0.413,-10.742,85.693,-9.277
0.821,-0.049,-0.448,-5.127,78.552,-10.925
0.832,-0.076,-0.450,-2.319,70.374,-11.963
0.860,-0.043,-0.409,0.122,65.125,-10.254
0.874,-0.013,-0.423,4.456,59.509,-9.888
0.879,-0.034,-0.454,8.606,52.673,-11.658
0.882,-0.089,-0.432,9.644,48.462,-13.245
0.882,-0.089,-0.439,9.216,42.969,-11.658
0.879,-0.094,-0.436,8.606,36.072,-9.583
0.880,-0.118,-0.402,7.019,33.875,-8.179
0.900,-0.104,-0.349,4.028,30.457,-5.676
0.918,-0.062,-0.307,0.977,26.794,-3.113
0.930,-0.032,-0.298,-0.793,25.940,-2.747
0.938,-0.025,-0.312,-1.892,26.978,-4.089
0.933,-0.036,-0.338,-2.197,27.405,-5.737
0.925,-0.057,-0.337,-1.404,26.001,-6.958
0.920,-0.086,-0.355,-0.916,21.545,-7.812
0.924,-0.112,-0.339,-1.282,15.503,-7.812
0.927,-0.113,-0.284,-0.305,11.169,-7.080
0.929,-0.123,-0.263,2.258,9.644,-6.531
0.924,-0.124,-0.277,4.944,10.742,-5.859
0.931,-0.122,-0.276,7.812,11.353,-4.822
0.929,-0.133,-0.254,9.521,8.728,-4.456
0.927,-0.113,-0.273,10.254,6.714,-3.052
0.943,-0.091,-0.253,8.850,5.859,-2.441
0.955,-0.061,-0.273,6.348,6.958,-2.319
0.951,-0.096,-0.279,4.089,7.446,-3.296
0.947,-0.091,-0.251,1.648,7.080,-3.540
0.954,-0.061,-0.267,0.366,7.996,-2.808
0.954,-0.087,-0.294,0.122,5.310,-4.395
0.950,-0.107,-0.300,0.427,2.136,-5.432
0.948,-0.117,-0.257,1.160,2.258,-5.005
0.949,-0.115,-0.223,2.747,1.038,-4.150
0.949,-0.123,-0.218,4.883,-1.709,-3.723
0.949,-0.125,-0.233,6.104,0.732,-3.113
0.946,-0.121,-0.225,6.470,-0.183,-2.441
0.952,-0.118,-0.216,5.920,-1.953,-2.075
0.966,-0.111,-0.194,5.005,0.061,-1.343
0.966,-0.091,-0.183,3.418,-0.366,-0.671
0.967,-0.082,-0.212,1.831,1.526,-0.427
0.968,-0.089,-0.256,0.916,5.188,-0.549
0.974,-0.112,-0.209,0.793,0.793,-0.488
0.978,-0.074,-0.164,1.404,-2.014,0.610
0.980,-0.069,-0.190,2.625,1.099,0.671
0.978,-0.083,-0.213,3.967,2.625,-0.305
0.974,-0.087,-0.197,4.639,-1.160,-0.305
0.976,-0.081,-0.172,5.432,-0.305,0.305
0.977,-0.090,-0.169,6.165,0.854,0.671
0.973,-0.095,-0.168,6.104,-1.099,0.793
0.979,-0.075,-0.160,5.005,-0.183,1.770
0.988,-0.053,-0.152,3.845,0.305,2.197
0.996,-0.041,-0.170,2.686,1.038,1.953
0.998,-0.039,-0.201,0.977,1.038,1.221
1.001,-0.047,-0.175,0.000,1.648,0.549
0.999,-0.031,-0.148,0.122,2.563,0.183
0.995,-0.031,-0.192,0.488,0.977,-0.610
0.983,-0.071,-0.196,1.099,0.122,-2.014
0.984,-0.074,-0.180,1.892,0.366,-1.831

0.647,0.365,1.977,19.226,-226.379,-2.075
0.690,0.361,2.119,20.752,-205.078,-13.428
0.702,0.277,2.361,23.132,-183.655,-27.283
0.692,0.175,2.452,25.391,-156.311,-37.842
0.666,-0.040,2.546,15.625,-127.014,-45.471
0.652,-0.195,2.794,-2.258,-104.309,-44.495
0.663,-0.254,3.007,-23.315,-70.923,-36.316
0.701,-0.276,3.146,-38.818,-32.227,-27.222
0.765,-0.220,3.226,-40.100,3.967,-18.188
0.724,-0.130,3.172,-22.095,39.429,-12.756
0.701,-0.204,2.845,2.380,77.515,-11.780
0.701,-0.205,2.651,15.991,109.863,-9.644
0.650,-0.096,2.461,32.654,135.132,-3.540
0.593,-0.079,2.158,48.340,162.048,-3.174
0.562,-0.053,1.878,59.631,189.331,-2.930
0.532,-0.015,1.610,61.584,208.496,-2.014
0.497,0.006,1.395,57.861,224.243,-0.854
0.464,0.002,1.147,49.988,238.831,0.366
0.430,-0.040,0.937,40.955,250.244,1.587
0.399,-0.066,0.782,29.541,258.728,4.333
0.399,-0.015,0.604,19.165,266.907,8.667
0.409,0.031,0.438,10.925,271.484,11.292
0.406,-0.005,0.364,5.066,272.156,10.498
0.410,0.002,0.246,0.183,272.278,11.475
0.432,0.023,0.102,-1.282,273.315,12.451
0.435,0.041,-0.052,1.465,269.836,11.414
0.428,-0.015,-0.193,5.005,260.437,8.972
0.446,-0.016,-0.343,7.202,248.169,8.240
0.471,-0.024,-0.496,8.789,236.938,8.606
0.513,-0.048,-0.555,8.545,218.445,8.606
0.564,0.003,-0.560,2.991,203.064,10.010
0.604,0.032,-0.549,-5.127,193.359,10.315
0.655,0.102,-0.585,-17.761,183.838,8.545
0.665,-0.072,-0.584,-21.973,169.373,3.540
0.665,0.043,-0.653,-21.240,161.499,6.592
0.647,0.032,-0.764,-22.461,151.611,7.263
0.673,-0.072,-0.789,-23.560,135.193,0.916
0.711,-0.025,-0.749,-22.461,116.638,1.648
0.728,-0.007,-0.746,-21.057,103.394,1.404
0.742,-0.035,-0.763,-19.043,90.210,-1.038
0.757,-0.057,-0.719,-16.235,75.684,-2.319
0.766,-0.074,-0.681,-10.742,63.477,-3.174
0.788,-0.106,-0.600,-6.226,50.598,-3.540
0.800,-0.110,-0.516,-4.333,44.800,-3.296
0.806,-0.113,-0.500,-1.099,40.588,-2.686
0.806,-0.118,-0.546,2.930,39.612,-2.380
0.824,-0.138,-0.556,6.226,32.898,-2.197
0.833,-0.120,-0.529,8.423,28.503,-1.221
0.831,-0.106,-0.534,10.315,23.193,0.061
0.833,-0.111,-0.548,9.460,20.752,0.366
0.853,-0.121,-0.532,7.202,14.771,1.221
0.876,-0.125,-0.450,2.991,11.292,2.808
0.890,-0.107,-0.394,-1.221,7.446,4.761
0.899,-0.085,-0.358,-4.517,10.559,5.798
0.914,-0.064,-0.358,-5.310,11.963,5.493
0.922,-0.059,-0.359,-4.700,11.047,4.028
0.927,-0.063,-0.321,-2.930,8.728,2.136
0.937,-0.041,-0.293,-2.258,9.338,0.916
0.946,-0.046,-0.276,-1.526,7.751,-0.732
0.935,-0.081,-0.293,0.488,9.644,-2.380
0.922,-0.091,-0.374,3.662,9.521,-2.808
0.912,-0.129,-0.390,5.432,4.822,-3.662
0.907,-0.170,-0.327,7.385,0.671,-3.296
0.913,-0.186,-0.301,7.996,-0.671,-1.526
0.916,-0.160,-0.331,6.653,-0.061,1.831
0.918,-0.161,-0.315,4.700,-0.244,4.333
0.922,-0.149,-0.282,3.906,-1.770,6.958
0.936,-0.110,-0.274,2.930,-3.479,9.521
0.950,-0.080,-0.253,1.709,-2.502,11.353
0.960,-0.052,-0.221,0.977,-2.563,11.597
0.968,-0.038,-0.220,0.244,1.221,11.292
0.971,-0.050,-0.242,-1.099,0.244,10.498
0.971,-0.056,-0.236,-2.441,1.038,10.559
0.978,-0.045,-0.205,-2.502,2.197,10.986
0.992,-0.026,-0.186,-2.014,1.404,10.925
0.990,-0.013,-0.199,-0.610,4.639,9.766
0.987,-0.016,-0.237,1.953,6.287,8.484
0.986,-0.019,-0.235,4.639,2.930,6.958
0.985,-0.022,-0.232,7.263,0.488,5.737
0.979,-0.032,-0.243,8.179,1.648,5.005
0.978,-0.014,-0.248,7.690,-0.122,5.005
0.984,-0.015,-0.250,7.202,1.282,4.700
0.990,-0.022,-0.215,6.775,-1.831,4.028
0.990,0.003,-0.202,5.493,-0.854,3.967
0.988,-0.004,-0.216,4.395,2.075,2.991
0.982,-0.010,-0.229,3.113,0.610,1.343
0.983,-0.000,-0.242,2.625,1.587,0.732
0.981,0.000,-0.225,3.113,3.296,-0.549
0.981,-0.003,-0.241,3.723,2.686,-1.770
0.980,-0.033,-0.249,3.967,-0.183,-2.319
0.972,-0.046,-0.234,3.906,0.305,-2.319
0.965,-0.062,-0.228,4.333,-0.549,-2.136
0.974,-0.074,-0.203,3.540,-2.014,-1.587
0.979,-0.067,-0.194,2.747,0.977,0.183
0.975,-0.061,-0.191,1.953,0.549,1.221
0.975,-0.048,-0.213,1.465,3.723,2.380
0.979,-0.046,-0.219,1.953,1.953,2.686
0.977,-0.032,-0.230,2.197,3.296,2.869
0.978,-0.024,-0.224,3.296,3.418,2.686
0.986,-0.034,-0.186,3.540,0.732,1.831
0.987,-0.007,-0.216,3.418,4.395,1.892
0.981,-0.016,-0.247,3.723,3.357,0.916
0.974,-0.040,-0.235,3.174,4.211,0.183
0.971,-0.046,-0.244,2.380,2.625,0.793
0.968,-0.049,-0.253,1.099,4.700,1.709
0.970,-0.038,-0.244,0.793,3.052,2.686
0.972,-0.033,-0.234,0.977,4.211,3.052
0.973,-0.034,-0.229,2.014,2.319,2.808
0.968,-0.028,-0.246,2.380,4.211,2.686
0.975,-0.024,-0.250,2.869,2.625,2.441
0.977,-0.032,-0.238,2.869,3.662,2.136
0.977,-0.037,-0.214,2.563,2.502,1.953
0.979,-0.034,-0.215,1.831,4.150,2.197
0.978,-0.049,-0.209,1.709,3.662,2.258
0.978,-0.051,-0.188,1.709,1.770,2.625
0.982,-0.056,-0.180,1.160,4.822,3.113
0.974,-0.055,-0.206,1.160,8.057,4.028
0.967,-0.063,-0.221,0.610,6.042,4.761
0.967,-0.067,-0.232,-0.366,7.019,5.981

0.756,1.159,2.055,0.916,-286.194,79.529
0.842,1.220,2.188,12.939,-261.108,48.584
0.800,1.085,2.248,32.471,-236.023,12.146
0.729,0.785,2.299,42.725,-208.252,-19.653
0.638,0.516,2.277,38.269,-178.101,-37.903
0.570,0.305,2.310,23.682,-149.292,-43.701
0.543,0.197,2.432,7.568,-123.962,-40.771
0.585,0.132,2.616,-11.230,-97.656,-33.997
0.635,0.156,2.796,-25.330,-67.932,-25.879
0.677,0.178,2.977,-29.358,-36.621,-20.508
0.691,0.176,3.021,-21.729,-2.441,-18.066
0.704,0.182,2.916,-10.498,34.729,-16.541
0.727,0.209,2.886,-0.671,66.956,-15.686
0.759,0.241,2.858,7.874,96.558,-15.808
0.750,0.245,2.703,16.357,133.789,-17.334
0.669,0.231,2.359,25.452,173.523,-19.470
0.575,0.126,1.980,33.081,210.205,-22.156
0.500,0.110,1.613,33.447,233.398,-21.362
0.442,0.100,1.331,31.189,251.648,-18.372
0.424,0.126,1.079,23.376,265.564,-16.541
0.448,0.209,0.893,13.367,271.362,-14.404
0.463,0.262,0.763,6.165,273.743,-15.625
0.469,0.281,0.638,1.404,277.039,-20.386
0.496,0.337,0.532,-4.089,278.564,-25.574
0.480,0.351,0.417,-6.897,276.123,-32.776
0.447,0.251,0.227,-6.409,277.710,-41.687
0.412,0.143,-0.022,-6.287,277.283,-46.631
0.400,0.056,-0.227,-4.211,269.287,-47.180
0.397,-0.017,-0.350,-0.854,251.892,-44.983
0.414,-0.099,-0.474,-1.221,234.985,-40.771
0.455,-0.129,-0.563,-4.639,219.177,-33.936
0.524,-0.067,-0.579,-9.277,199.097,-25.879
0.568,-0.019,-0.602,-12.451,184.875,-20.996
0.593,-0.022,-0.653,-11.841,167.603,-20.020
0.646,-0.016,-0.640,-11.719,151.855,-18.372
0.685,0.006,-0.592,-12.207,133.118,-16.113
0.715,0.036,-0.582,-12.329,121.765,-14.771
0.749,0.059,-0.585,-11.475,111.877,-14.587
0.774,0.057,-0.588,-11.230,100.037,-15.991
0.779,0.047,-0.558,-10.193,89.600,-17.700
0.790,0.044,-0.512,-8.789,78.247,-19.592
0.818,0.063,-0.529,-7.996,71.167,-20.935
0.831,0.037,-0.520,-4.639,60.791,-24.109
0.824,-0.031,-0.508,0.427,53.894,-27.649
0.819,-0.055,-0.513,2.869,44.556,-28.503
0.835,-0.095,-0.463,5.249,38.879,-28.259
0.841,-0.117,-0.442,6.836,32.959,-26.672
0.840,-0.144,-0.441,6.714,32.104,-24.170
0.831,-0.151,-0.460,6.348,32.104,-21.179
0.837,-0.152,-0.460,5.493,27.588,-17.578
0.845,-0.164,-0.419,3.601,23.437,-14.709
0.860,-0.147,-0.402,1.648,20.569,-10.864
0.872,-0.121,-0.385,-1.038,20.569,-7.751
0.875,-0.108,-0.370,-2.625,18.433,-6.042
0.874,-0.116,-0.355,-3.479,14.771,-5.432
0.890,-0.121,-0.329,-4.028,15.381,-4.639
0.902,-0.118,-0.308,-3.967,14.954,-3.479
0.904,-0.108,-0.358,-2.991,13.672,-2.625
0.900,-0.130,-0.347,-0.732,9.949,-2.502
0.910,-0.129,-0.280,1.160,7.812,-2.197
0.927,-0.094,-0.274,2.625,8.301,-1.282
0.935,-0.064,-0.343,4.578,6.531,-1.221
0.931,-0.094,-0.312,5.615,1.953,-2.258
0.923,-0.121,-0.278,6.714,0.000,-2.747
0.925,-0.131,-0.279,6.165,2.258,-2.136
0.931,-0.128,-0.260,4.883,-0.244,-1.099
0.928,-0.130,-0.271,3.601,2.563,0.183
0.932,-0.128,-0.271,2.686,2.869,1.465
0.937,-0.112,-0.240,2.563,-1.221,2.808
0.949,-0.104,-0.205,2.502,-1.160,3.723
0.966,-0.070,-0.187,1.648,1.587,4.639
0.971,-0.054,-0.214,2.014,4.456,4.700
0.969,-0.052,-0.237,2.014,1.770,4.150
0.970,-0.046,-0.212,2.380,-0.366,3.906
0.972,-0.084,-0.187,3.052,2.136,3.601
0.964,-0.072,-0.213,2.625,1.892,4.456
0.959,-0.062,-0.241,1.831,2.930,5.493
0.969,-0.061,-0.224,1.709,3.296,6.042
0.972,-0.036,-0.196,2.502,3.540,7.019
0.972,-0.026,-0.203,2.930,4.272,7.141
0.975,-0.024,-0.228,2.930,2.625,6.470
0.984,-0.018,-0.231,2.197,4.089,6.226
0.986,0.003,-0.218,1.709,3.662,6.226
0.987,0.001,-0.218,2.075,3.235,5.493
0.985,-0.012,-0.215,2.197,1.709,4.517
0.980,-0.023,-0.216,2.441,-0.793,4.211
0.982,-0.039,-0.196,2.441,-2.991,4.272
0.981,-0.033,-0.157,2.747,-3.540,4.639
0.982,-0.016,-0.159,2.747,-1.526,5.371
0.985,-0.004,-0.181,2.625,0.916,5.249
0.983,-0.001,-0.203,2.197,3.357,4.517
0.988,0.012,-0.196,1.587,4.822,4.211
0.991,0.018,-0.196,1.465,4.578,3.601
0.991,0.008,-0.204,1.282,4.639,2.563
0.986,0.006,-0.218,0.610,3.601,1.831
0.984,0.002,-0.226,0.183,0.916,1.221
0.982,-0.008,-0.232,1.343,-0.732,0.427
0.987,-0.024,-0.196,2.319,-1.709,-0.061
0.989,-0.030,-0.162,2.991,-0.610,0.488
0.982,-0.025,-0.179,3.479,2.014,0.854
0.980,-0.018,-0.193,3.479,3.784,1.465
0.981,-0.024,-0.188,2.563,1.099,1.648
0.982,-0.014,-0.194,1.404,0.305,2.136
0.984,-0.005,-0.190,0.183,0.916,2.502
0.986,0.003,-0.197,-0.366,2.380,2.197
0.984,-0.003,-0.218,-0.305,3.845,1.526
0.982,-0.008,-0.225,-0.305,4.517,0.977
0.984,0.001,-0.208,0.000,3.723,0.732
0.982,-0.001,-0.211,1.099,1.892,0.122
0.976,-0.036,-0.205,2.014,0.488,-1.038
0.972,-0.054,-0.190,1.526,0.427,-0.793
0.973,-0.035,-0.231,0.916,1.221,0.549
0.978,-0.033,-0.195,0.549,2.991,1.526
0.981,-0.014,-0.167,-0.122,3.662,2.014
0.983,-0.003,-0.209,-0.610,4.333,2.258
0.980,-0.015,-0.211,0.122,2.441,1.587
0.987,-0.003,-0.203,0.366,3.479,1.587
0.990,0.004,-0.189,-0.122,5.066,1.343
0.987,-0.005,-0.191,0.122,3.174,0.488

0.444,0.215,-2.468,-8.972,-53.772,-20.691
0.378,0.160,-2.136,-31.982,-109.863,-26.245
0.334,0.116,-1.749,-58.289,-152.588,-27.771
0.280,0.059,-1.437,-79.590,-178.528,-27.527
0.229,-0.120,-1.082,-89.233,-198.792,-27.832
0.207,-0.240,-0.844,-88.257,-212.524,-23.926
0.167,-0.285,-0.831,-83.801,-218.811,-15.564
0.130,-0.244,-0.949,-79.163,-226.685,-5.371
0.072,-0.238,-1.039,-76.050,-240.112,3.052
0.009,-0.169,-1.045,-77.148,-262.329,12.939
-0.047,-0.002,-0.847,-81.299,-294.556,23.560
-0.070,0.091,-0.391,-82.153,-328.369,28.625
-0.064,0.123,0.040,-75.989,-350.464,29.663
-0.031,0.142,0.356,-63.049,-362.000,30.090
-0.011,0.096,0.564,-45.349,-367.432,29.236
-0.013,0.009,0.766,-26.184,-371.216,28.748
-0.012,-0.073,1.124,-7.263,-373.291,31.128
0.042,-0.116,1.549,9.705,-365.601,36.072
0.112,-0.132,1.975,23.315,-349.548,42.297
0.200,-0.104,2.342,28.259,-318.481,50.110
0.348,0.205,2.675,24.841,-281.311,59.753
0.561,0.533,3.073,12.512,-242.371,61.829
0.692,0.672,3.297,4.211,-196.777,50.415
0.758,0.687,3.405,-6.226,-147.705,34.180
0.807,0.647,3.564,-20.020,-105.347,18.799
0.841,0.528,3.801,-35.217,-65.552,4.517
0.855,0.438,3.990,-43.396,-23.071,-5.249
0.826,0.342,3.970,-38.635,25.085,-12.390
0.786,0.217,3.766,-21.973,72.388,-18.127
0.732,0.161,3.517,2.625,113.831,-20.508
0.644,0.142,3.262,31.799,153.137,-21.667
0.556,0.105,2.940,56.274,196.167,-23.193
0.481,0.141,2.361,71.472,241.577,-23.560
0.374,0.124,1.853,75.623,274.231,-25.452
0.279,0.063,1.505,73.975,295.105,-26.611
0.214,0.072,1.144,67.139,308.960,-24.231
0.185,0.099,0.845,59.998,318.848,-21.545
0.203,0.138,0.695,52.429,316.589,-21.118
0.198,0.154,0.525,50.171,316.345,-23.132
0.165,0.084,0.284,53.589,313.721,-27.344
0.146,-0.014,0.092,57.068,307.129,-29.663
0.145,-0.074,-0.040,60.547,299.561,-27.893
0.180,-0.078,-0.162,60.791,290.955,-22.888
0.227,-0.037,-0.336,61.035,281.738,-17.822
0.266,-0.077,-0.430,59.692,270.081,-15.320
0.322,-0.034,-0.475,49.133,260.132,-10.925
0.363,0.027,-0.683,35.950,254.028,-5.737
0.391,-0.016,-0.915,25.696,242.676,-5.005
0.438,-0.060,-0.981,17.761,219.849,-4.028
0.485,-0.062,-0.986,9.155,193.542,-0.732
0.536,-0.006,-1.034,0.488,171.631,3.174
0.584,-0.085,-0.992,-9.277,149.048,4.517
0.656,-0.086,-0.858,-10.742,125.549,4.639
0.699,0.058,-0.802,-13.611,111.206,9.888
0.732,0.041,-0.748,-14.160,100.037,5.615
0.758,0.060,-0.670,-13.367,87.646,0.610
0.768,0.045,-0.638,-9.949,78.918,-3.479
0.773,0.014,-0.664,-5.066,71.899,-8.789
0.780,-0.021,-0.694,0.366,63.843,-13.123
0.774,-0.066,-0.707,6.897,55.115,-16.846
0.758,-0.120,-0.737,13.000,47.180,-18.738
0.748,-0.165,-0.778,17.639,37.415,-18.311
0.759,-0.219,-0.696,19.226,27.771,-15.930
0.763,-0.251,-0.625,19.226,19.775,-11.414
0.768,-0.256,-0.598,16.418,14.343,-5.615
0.787,-0.216,-0.568,12.146,11.963,0.000
0.807,-0.192,-0.532,8.667,12.207,4.333
0.833,-0.136,-0.498,5.493,12.573,7.751
0.860,-0.088,-0.468,1.709,12.512,9.705
0.891,-0.066,-0.441,-2.136,12.390,9.766
0.899,-0.027,-0.416,-5.249,13.306,9.521
0.906,-0.029,-0.428,-6.409,14.465,7.019
0.912,-0.043,-0.460,-5.310,12.268,3.906
0.918,-0.054,-0.437,-3.296,7.751,1.160
0.913,-0.074,-0.446,-1.526,4.700,-1.221
0.904,-0.112,-0.440,-0.732,2.319,-2.563
0.899,-0.133,-0.424,0.977,-1.099,-3.357
0.893,-0.168,-0.423,1.465,-4.272,-3.418
0.880,-0.196,-0.440,1.953,-7.385,-2.686
0.892,-0.205,-0.401,1.831,-11.475,-1.343
0.908,-0.181,-0.313,0.183,-16.235,1.404
0.921,-0.152,-0.288,-1.343,-17.212,3.845
0.933,-0.111,-0.274,-3.601,-15.564,5.493
0.955,-0.094,-0.244,-6.897,-11.475,5.798
0.965,-0.090,-0.235,-10.742,-8.484,5.493
0.966,-0.081,-0.229,-12.268,-6.226,5.066
0.965,-0.092,-0.245,-11.414,-5.737,3.784
0.964,-0.117,-0.255,-8.789,-6.714,2.625
0.951,-0.130,-0.263,-4.333,-7.751,2.380
0.943,-0.147,-0.262,-0.061,-8.118,2.686
0.944,-0.156,-0.258,2.380,-6.958,3.662
0.950,-0.150,-0.252,3.723,-8.484,5.554
0.963,-0.138,-0.191,4.028,-11.047,7.629
0.979,-0.072,-0.151,2.258,-7.263,9.949
0.990,-0.053,-0.158,0.488,-4.578,10.132
0.991,-0.044,-0.179,-0.916,-2.930,9.094
0.988,-0.041,-0.204,-2.136,0.183,8.484
0.984,-0.042,-0.235,-2.991,1.892,7.202
0.989,-0.045,-0.232,-2.686,1.343,6.165
0.985,-0.076,-0.191,-2.747,-0.244,5.005
0.979,-0.068,-0.223,-3.052,-1.404,5.249
0.972,-0.106,-0.213,-3.113,-2.686,5.432
0.976,-0.086,-0.205,-2.502,-1.099,6.348
0.984,-0.074,-0.208,-1.831,0.000,7.263
0.988,-0.047,-0.189,-0.427,-1.587,7.202
0.992,-0.028,-0.187,1.282,-2.075,6.409
0.991,-0.020,-0.193,2.380,-2.075,4.761
0.990,-0.028,-0.207,2.930,0.305,3.479
0.989,-0.031,-0.210,2.319,2.869,2.380
0.987,-0.030,-0.221,1.587,2.563,1.648
0.987,-0.042,-0.231,0.793,0.854,0.854
0.986,-0.057,-0.205,0.122,-0.671,0.671
0.981,-0.053,-0.209,0.122,-2.014,0.854
0.982,-0.064,-0.231,-0.122,0.244,1.038
0.974,-0.078,-0.226,-0.366,1.160,1.282
0.973,-0.080,-0.219,-0.977,1.404,2.258
0.975,-0.064,-0.205,-1.770,2.197,3.174
0.979,-0.054,-0.204,-2.380,2.930,3.479
0.981,-0.035,-0.225,-2.930,1.465,3.540

0.496,0.050,-2.083,1.953,-66.040,-16.174
0.441,0.069,-1.935,-9.949,-104.614,-19.043
0.373,0.042,-1.860,-22.827,-135.498,-23.437
0.275,-0.033,-1.872,-33.325,-161.682,-26.367
0.184,-0.082,-1.860,-46.997,-195.007,-26.001
0.109,-0.135,-1.655,-57.556,-228.149,-23.437
0.041,-0.312,-1.324,-64.392,-257.996,-20.569
0.002,-0.445,-0.945,-68.359,-279.358,-12.207
-0.018,-0.399,-0.820,-67.139,-286.743,2.441
-0.045,-0.359,-0.802,-64.453,-288.818,16.174
-0.074,-0.330,-0.620,-61.035,-299.927,27.039
-0.095,-0.260,-0.434,-54.688,-312.500,38.086
-0.123,-0.174,-0.286,-45.593,-323.303,48.035
-0.157,-0.063,0.011,-32.288,-339.294,55.237
-0.144,0.034,0.446,-17.090,-356.567,58.105
-0.082,0.087,0.831,-2.075,-363.708,57.373
-0.005,0.062,1.186,13.123,-361.328,55.237
0.084,0.057,1.558,26.428,-354.919,53.284
0.211,0.219,1.913,34.607,-336.853,53.833
0.370,0.453,2.127,35.522,-305.359,50.842
0.481,0.550,2.297,27.771,-272.522,38.452
0.507,0.618,2.407,13.916,-237.061,22.949
0.525,0.588,2.585,-8.545,-203.857,6.775
0.563,0.507,2.954,-39.063,-175.659,-6.714
0.645,0.418,3.513,-67.810,-150.024,-15.442
0.731,0.367,3.989,-84.656,-113.220,-20.813
0.755,0.270,4.000,-79.163,-63.721,-26.794
0.718,0.101,4.000,-56.091,-8.728,-32.593
0.682,0.024,4.000,-25.940,42.480,-33.020
0.674,0.035,3.946,5.249,86.670,-29.846
0.650,0.059,3.581,38.635,134.033,-27.405
0.572,0.045,3.065,65.918,183.167,-27.649
0.443,-0.036,2.498,78.003,226.196,-29.114
0.315,-0.126,2.006,75.317,259.766,-28.442
0.250,-0.144,1.585,65.369,283.203,-22.583
0.223,-0.105,1.181,53.650,301.819,-15.259
0.224,-0.071,0.880,43.335,309.021,-10.254
0.245,-0.008,0.742,36.804,303.467,-7.446
0.272,0.053,0.639,35.889,295.471,-6.897
0.271,0.053,0.462,39.673,295.166,-10.071
0.258,-0.018,0.259,45.349,294.800,-13.916
0.238,-0.053,0.030,50.232,289.490,-14.954
0.236,-0.094,-0.214,55.176,278.931,-13.672
0.263,-0.107,-0.351,58.228,261.475,-11.780
0.315,-0.127,-0.371,56.274,243.835,-8.728
0.385,-0.069,-0.445,49.927,232.544,-3.723
0.434,-0.024,-0.574,38.452,225.708,-0.244
0.453,-0.056,-0.723,27.527,216.125,0.916
0.494,-0.058,-0.800,17.456,198.120,3.113
0.564,-0.058,-0.791,7.263,177.124,6.470
0.617,-0.052,-0.743,-1.587,157.959,9.338
0.661,-0.009,-0.732,-9.216,141.602,11.963
0.703,0.012,-0.725,-15.625,126.526,12.329
0.734,0.004,-0.708,-20.264,113.770,10.498
0.759,0.021,-0.710,-22.949,104.431,9.033
0.783,0.012,-0.656,-24.048,92.957,6.348
0.796,-0.001,-0.574,-23.010,79.224,3.296
0.806,-0.020,-0.541,-20.935,69.824,0.305
0.813,-0.044,-0.547,-17.822,64.392,-2.075
0.824,-0.061,-0.514,-11.963,60.242,-4.333
0.824,-0.095,-0.476,-4.761,54.688,-7.019
0.815,-0.110,-0.529,0.854,51.514,-8.545
0.808,-0.152,-0.548,5.676,45.105,-9.705
0.802,-0.174,-0.543,8.789,40.405,-9.094
0.802,-0.178,-0.586,10.559,38.025,-6.897
0.810,-0.189,-0.616,10.376,31.250,-4.395
0.821,-0.186,-0.590,7.385,22.339,-1.770
0.832,-0.162,-0.570,3.601,16.968,1.343
0.841,-0.170,-0.544,0.000,13.672,3.662
0.856,-0.157,-0.489,-3.906,10.437,6.104
0.877,-0.112,-0.446,-6.470,8.972,8.728
0.907,-0.076,-0.426,-8.301,8.362,9.277
0.928,-0.025,-0.386,-8.728,6.897,8.484
0.936,-0.039,-0.356,-6.775,5.005,5.005
0.935,-0.047,-0.364,-3.784,3.235,1.343
0.927,-0.065,-0.388,-0.305,1.038,-1.282
0.932,-0.139,-0.362,2.502,-2.808,-3.723
0.935,-0.122,-0.324,1.770,-5.859,-3.174
0.941,-0.134,-0.281,1.160,-7.324,-2.563
0.945,-0.146,-0.233,0.122,-7.812,-2.625
0.950,-0.130,-0.230,-1.038,-5.249,-2.075
0.948,-0.150,-0.234,-1.160,-3.723,-2.075
0.940,-0.168,-0.220,-0.244,-3.845,-1.770
0.939,-0.163,-0.219,0.122,-5.615,-0.366
0.943,-0.166,-0.231,0.793,-3.845,0.793
0.942,-0.157,-0.246,1.343,-1.343,2.014
0.947,-0.143,-0.244,1.648,-1.282,3.357
0.956,-0.134,-0.233,1.831,-1.892,4.333
0.965,-0.126,-0.193,1.526,-3.296,4.822
0.979,-0.100,-0.161,1.160,-4.700,5.493
0.987,-0.079,-0.151,1.221,-4.211,5.249
0.982,-0.078,-0.149,2.563,-2.869,4.150
0.981,-0.071,-0.191,4.395,-0.793,2.747
0.978,-0.089,-0.216,5.371,2.014,1.465
0.967,-0.106,-0.220,6.104,1.953,0.610
0.961,-0.104,-0.235,5.676,2.258,0.854
0.959,-0.129,-0.244,5.127,2.075,1.038
0.960,-0.146,-0.221,3.113,1.282,2.014
0.977,-0.094,-0.174,0.427,0.305,5.005
0.992,-0.064,-0.165,-1.160,0.916,6.104
0.997,-0.055,-0.159,-1.465,1.770,5.554
0.996,-0.054,-0.168,-0.854,2.625,4.517
0.993,-0.070,-0.161,0.122,3.174,3.052
0.992,-0.055,-0.186,0.793,4.089,2.380
0.997,-0.051,-0.185,1.770,3.540,1.404
0.988,-0.072,-0.164,2.808,1.892,-0.183
0.976,-0.095,-0.192,3.235,1.831,-0.854
0.973,-0.123,-0.193,3.113,1.404,-0.488
0.969,-0.113,-0.189,1.892,0.061,0.977
0.970,-0.105,-0.194,1.465,-0.732,2.197
0.983,-0.105,-0.177,1.038,-2.014,2.869
0.992,-0.083,-0.135,1.160,-2.380,3.723
0.992,-0.068,-0.141,1.770,-0.427,4.150
0.990,-0.068,-0.166,2.747,3.235,3.540
0.984,-0.067,-0.172,3.174,2.441,2.991
0.988,-0.070,-0.170,2.930,0.732,2.930
0.992,-0.061,-0.164,1.892,2.014,2.869
0.986,-0.057,-0.183,1.343,2.808,2.747
0.979,-0.073,-0.189,1.221,2.747,1.831

0.448,-0.095,-2.114,9.583,-57.068,-14.832
0.388,-0.086,-2.059,-5.981,-94.910,-13.977
0.349,-0.069,-1.856,-21.057,-133.179,-11.353
0.306,-0.154,-1.494,-32.532,-168.640,-10.681
0.269,-0.180,-1.242,-41.382,-191.223,-7.568
0.246,-0.224,-0.999,-44.678,-205.383,-2.869
0.246,-0.238,-0.775,-41.199,-217.590,1.282
0.238,-0.188,-0.733,-34.851,-221.741,7.874
0.198,-0.173,-0.796,-29.175,-227.722,11.963
0.149,-0.094,-0.935,-27.222,-237.244,16.724
0.079,-0.068,-0.925,-28.625,-256.653,20.325
0.031,-0.025,-0.720,-31.250,-283.936,23.682
0.002,0.062,-0.300,-33.752,-312.866,27.100
0.023,0.158,0.135,-31.372,-333.374,28.503
0.070,0.182,0.509,-21.423,-344.666,25.330
0.122,0.151,0.821,-3.845,-347.778,19.043
0.146,0.073,1.063,17.090,-344.971,12.329
0.145,-0.023,1.254,33.447,-336.792,6.653
0.164,0.009,1.491,35.278,-321.777,6.958
0.271,0.061,1.950,12.939,-305.786,9.705
0.432,0.202,2.449,-26.367,-277.405,15.381
0.588,0.424,2.865,-71.777,-235.596,20.264
0.716,0.593,3.223,-108.643,-189.514,17.761
0.888,0.772,3.674,-130.432,-149.841,7.568
1.044,0.906,4.000,-127.869,-114.319,-8.850
1.072,0.731,4.000,-98.999,-74.341,-35.217
0.969,0.348,4.000,-54.443,-22.766,-60.120
0.823,0.052,4.000,-12.695,31.006,-70.862
0.729,-0.027,3.866,19.470,78.186,-66.711
0.691,-0.033,3.562,44.250,120.483,-58.838
0.606,-0.089,3.200,62.195,166.138,-52.612
0.491,-0.051,2.568,72.815,215.271,-47.180
0.367,-0.114,2.054,75.439,249.573,-44.067
0.265,-0.187,1.593,68.604,272.095,-39.551
0.225,-0.139,1.203,58.655,287.292,-30.090
0.233,-0.074,0.937,49.744,289.124,-21.912
0.259,-0.010,0.787,44.861,287.659,-18.188
0.256,-0.014,0.631,45.959,286.499,-18.188
0.244,-0.041,0.459,51.636,283.203,-18.921
0.230,-0.079,0.328,57.922,279.114,-18.555
0.242,-0.085,0.236,62.256,274.475,-17.090
0.286,0.013,0.103,64.941,271.912,-13.611
0.314,0.045,-0.041,67.322,271.729,-14.282
0.314,0.015,-0.234,64.453,272.217,-17.334
0.312,-0.015,-0.493,53.955,272.217,-18.494
0.298,-0.107,-0.800,40.405,264.771,-18.127
0.323,-0.202,-0.943,29.114,244.019,-14.771
0.395,-0.193,-0.951,13.611,216.919,-6.348
0.479,-0.146,-0.903,-2.136,192.871,0.916
0.520,-0.129,-0.880,-13.123,174.744,4.639
0.558,-0.116,-0.951,-21.362,159.912,5.859
0.598,-0.119,-0.953,-26.367,143.066,5.859
0.630,-0.129,-0.882,-26.245,126.099,4.700
0.658,-0.121,-0.854,-22.278,111.145,3.662
0.676,-0.158,-0.837,-17.395,97.534,1.648
0.695,-0.206,-0.809,-13.000,84.290,0.183
0.700,-0.218,-0.825,-7.751,72.144,0.854
0.709,-0.215,-0.811,-2.563,60.913,2.197
0.718,-0.237,-0.754,1.465,49.561,2.747
0.724,-0.248,-0.750,4.761,41.748,3.967
0.729,-0.241,-0.765,6.775,34.302,6.165
0.747,-0.244,-0.721,8.606,23.437,7.996
0.777,-0.219,-0.663,9.521,13.977,9.949
0.798,-0.183,-0.622,9.583,8.789,12.390
0.812,-0.149,-0.610,6.958,6.042,13.733
0.833,-0.123,-0.566,2.625,4.517,14.343
0.855,-0.092,-0.547,-2.136,2.319,14.221
0.872,-0.087,-0.519,-5.127,0.732,13.123
0.892,-0.073,-0.488,-5.676,-0.854,11.230
0.898,-0.079,-0.497,-4.517,-0.732,8.667
0.895,-0.088,-0.504,-2.625,-1.465,5.554
0.891,-0.120,-0.525,-0.183,-4.272,2.747
0.890,-0.133,-0.492,0.977,-8.911,1.160
0.902,-0.135,-0.421,1.587,-12.817,0.366
0.903,-0.159,-0.396,2.258,-16.357,-1.099
0.905,-0.173,-0.408,1.587,-16.663,-1.709
0.909,-0.179,-0.348,0.488,-17.090,-1.709
0.930,-0.172,-0.280,-1.953,-16.968,-1.221
0.942,-0.160,-0.247,-3.540,-15.015,-1.160
0.941,-0.172,-0.250,-4.028,-12.939,-1.648
0.939,-0.172,-0.272,-5.005,-10.559,-1.831
0.933,-0.177,-0.287,-5.371,-9.155,-1.648
0.929,-0.219,-0.278,-5.249,-8.789,-1.953
0.931,-0.215,-0.251,-3.479,-8.484,-0.732
0.928,-0.237,-0.243,-0.610,-8.484,0.427
0.927,-0.237,-0.245,1.953,-7.812,2.014
0.928,-0.248,-0.240,3.479,-7.507,4.456
0.948,-0.198,-0.197,4.333,-9.155,7.568
0.971,-0.151,-0.142,5.066,-8.179,9.216
0.983,-0.136,-0.125,5.066,-5.676,8.911
0.992,-0.102,-0.149,4.395,-3.967,8.850
0.994,-0.086,-0.162,4.272,-2.869,7.874
0.994,-0.092,-0.162,4.211,-0.305,6.226
0.986,-0.107,-0.185,4.883,-1.282,4.700
0.980,-0.126,-0.196,5.920,-2.136,3.723
0.974,-0.137,-0.190,6.531,-1.343,3.906
0.973,-0.123,-0.200,6.653,1.038,4.639
0.968,-0.130,-0.218,6.714,0.549,4.517
0.965,-0.148,-0.197,6.836,-2.991,4.089
0.979,-0.117,-0.179,6.775,-1.953,5.310
0.987,-0.097,-0.161,6.470,-1.648,5.676
0.989,-0.105,-0.177,5.981,-2.197,4.639
0.983,-0.089,-0.207,4.578,2.014,4.578
0.979,-0.104,-0.208,3.784,2.808,3.723
0.982,-0.100,-0.193,3.052,-0.610,3.601
0.982,-0.098,-0.180,2.930,0.610,3.784
0.986,-0.086,-0.195,2.075,2.563,3.662
0.985,-0.088,-0.188,1.770,0.122,3.052
0.985,-0.084,-0.197,2.869,-0.671,2.197
0.977,-0.098,-0.206,4.517,-0.427,1.160
0.972,-0.124,-0.211,5.066,-1.465,0.427
0.975,-0.115,-0.210,4.211,-2.319,1.343
0.981,-0.110,-0.185,3.418,-2.563,2.441
0.985,-0.099,-0.168,2.930,-0.061,3.174
0.987,-0.105,-0.189,1.709,2.136,3.357
0.987,-0.104,-0.177,0.854,0.977,3.784
0.993,-0.072,-0.148,0.061,-0.244,5.188
0.999,-0.052,-0.169,-0.610,3.784,5.249
0.997,-0.056,-0.187,-0.427,6.409,3.845

0.626,0.457,1.834,-39.734,-205.505,20.691
0.714,0.463,2.258,-56.580,-197.205,17.517
0.813,0.469,2.640,-66.772,-179.443,13.977
0.919,0.519,2.826,-67.444,-149.353,10.010
0.974,0.506,2.881,-54.871,-118.591,2.930
0.963,0.396,2.857,-27.466,-91.187,-7.080
0.893,0.243,2.707,4.089,-63.538,-15.991
0.821,0.128,2.405,29.602,-37.476,-19.470
0.793,0.050,2.286,44.983,-21.667,-19.104
0.765,0.004,2.114,56.641,-7.080,-15.930
0.745,0.065,1.987,59.509,8.667,-10.193
0.755,0.131,1.930,52.856,24.353,-5.798
0.740,0.088,1.769,39.917,46.387,-6.470
0.693,0.052,1.565,28.320,68.726,-6.042
0.650,0.026,1.385,19.836,85.266,-3.967
0.645,0.059,1.311,12.817,94.788,-1.221
0.664,0.085,1.271,11.169,100.952,0.488
0.680,0.108,1.234,15.442,105.896,0.305
0.684,0.123,1.205,23.560,109.558,-0.854
0.682,0.132,1.143,32.654,115.723,-2.075
0.672,0.101,1.089,40.039,121.155,-3.540
0.650,0.063,0.990,46.387,130.493,-4.028
0.619,0.025,0.851,50.354,137.024,-3.479
0.618,0.024,0.713,51.758,144.287,-1.404
0.622,0.020,0.633,50.842,144.836,1.404
0.633,0.039,0.564,46.997,148.193,4.456
0.655,0.063,0.546,39.978,149.231,7.019
0.681,0.106,0.533,32.654,151.733,8.484
0.710,0.165,0.512,27.466,154.602,8.545
0.735,0.214,0.487,25.940,155.884,5.981
0.730,0.199,0.431,28.687,156.799,0.732
0.713,0.147,0.324,31.433,158.081,-3.967
0.708,0.106,0.253,33.875,154.907,-6.958
0.707,0.068,0.233,34.729,152.649,-8.179
0.707,0.041,0.200,34.302,147.339,-8.240
0.725,0.069,0.151,32.532,147.766,-7.141
0.747,0.077,0.160,29.541,147.583,-7.446
0.779,0.135,0.188,24.841,144.836,-7.874
0.789,0.140,0.150,20.630,150.330,-10.376
0.784,0.099,0.059,18.005,153.564,-14.221
0.759,0.060,-0.016,15.259,154.358,-16.602
0.733,0.003,-0.089,12.146,156.494,-18.005
0.724,-0.033,-0.199,6.958,152.832,-17.639
0.738,-0.050,-0.238,1.587,148.071,-15.503
0.743,-0.077,-0.246,-2.014,141.907,-13.916
0.731,-0.103,-0.310,-3.784,134.338,-12.390
0.737,-0.104,-0.353,-4.333,127.380,-10.010
0.750,-0.112,-0.356,-3.479,121.826,-8.484
0.764,-0.101,-0.380,-1.892,113.098,-6.775
0.788,-0.074,-0.395,-0.366,106.262,-4.944
0.804,-0.073,-0.389,0.122,101.746,-4.517
0.807,-0.073,-0.404,0.732,94.177,-4.700
0.796,-0.076,-0.465,1.404,92.346,-4.517
0.802,-0.078,-0.549,1.648,86.487,-4.395
0.819,-0.070,-0.564,2.258,75.989,-4.150
0.833,-0.064,-0.545,3.113,68.970,-4.456
0.826,-0.084,-0.568,2.075,61.829,-5.737
0.833,-0.091,-0.599,0.671,53.711,-5.859
0.847,-0.092,-0.571,-0.854,47.058,-5.554
0.847,-0.105,-0.526,-1.038,38.330,-5.615
0.849,-0.125,-0.499,-0.671,33.325,-5.798
0.861,-0.166,-0.471,-1.770,31.433,-5.066
0.865,-0.164,-0.464,-2.441,26.062,-3.296
0.865,-0.153,-0.466,-1.953,21.606,-1.221
0.872,-0.148,-0.453,-1.953,20.874,0.427
0.897,-0.106,-0.409,-2.380,14.587,2.258
0.924,-0.068,-0.362,-2.930,10.559,3.113
0.933,-0.056,-0.336,-3.479,10.986,2.319
0.930,-0.062,-0.319,-3.174,7.812,0.549
0.927,-0.077,-0.354,-2.808,9.949,-1.221
0.925,-0.091,-0.365,-2.686,6.775,-2.014
0.919,-0.110,-0.331,-1.404,5.005,-2.258
0.926,-0.117,-0.338,-1.526,4.517,-2.258
0.930,-0.134,-0.316,-2.014,0.916,-2.014
0.934,-0.148,-0.288,-3.296,2.014,-0.732
0.933,-0.129,-0.284,-4.150,2.625,1.526
0.934,-0.135,-0.264,-4.089,-0.854,2.869
0.940,-0.121,-0.248,-3.479,-2.075,4.150
0.963,-0.085,-0.220,-3.174,0.366,5.310
0.977,-0.047,-0.188,-3.418,1.343,5.310
0.981,-0.022,-0.191,-3.418,-0.183,4.028
0.983,-0.020,-0.205,-2.869,-0.244,1.404
0.982,-0.028,-0.235,-0.732,0.549,-0.854
0.973,-0.058,-0.242,0.977,2.136,-2.380
0.960,-0.092,-0.260,1.160,1.648,-2.930
0.958,-0.111,-0.241,1.526,-3.235,-2.686
0.959,-0.120,-0.185,1.892,-6.287,-1.648
0.964,-0.140,-0.171,1.953,-3.296,-0.122
0.963,-0.140,-0.172,1.038,-1.160,2.380
0.964,-0.112,-0.194,-0.244,-1.526,5.005
0.978,-0.084,-0.188,-0.977,-2.563,7.019
0.990,-0.044,-0.144,-0.793,-3.845,7.874
1.004,0.003,-0.121,-0.610,-2.563,7.629
1.010,0.002,-0.136,-1.038,1.282,5.554
1.007,0.001,-0.147,-0.916,-0.305,3.113
1.006,-0.012,-0.141,-0.061,-1.404,1.282
1.000,-0.026,-0.148,0.122,1.343,-0.122
0.989,-0.052,-0.168,0.244,1.282,-1.038
0.982,-0.069,-0.173,0.549,1.099,-0.732
0.980,-0.080,-0.185,0.061,1.831,0.061
0.980,-0.082,-0.168,0.183,-1.343,1.221
0.983,-0.061,-0.164,0.244,-0.244,2.747
0.988,-0.048,-0.174,-0.305,2.380,3.418
0.998,-0.033,-0.168,-0.488,0.549,3.479
1.000,-0.031,-0.131,0.244,-1.099,2.930
1.001,-0.016,-0.138,0.610,0.366,2.258
1.003,-0.019,-0.132,0.977,3.540,1.282
1.002,-0.029,-0.136,0.793,3.662,0.183
0.993,-0.035,-0.160,0.793,1.953,-0.732
0.991,-0.044,-0.177,1.282,1.221,-1.282
0.986,-0.042,-0.193,1.160,3.967,-1.404
0.980,-0.056,-0.192,0.916,1.404,-1.953
0.982,-0.077,-0.183,0.488,1.343,-2.014
0.981,-0.067,-0.163,-0.244,0.244,-1.465
0.983,-0.062,-0.169,-0.183,0.671,-1.099
0.980,-0.073,-0.173,-0.427,0.977,-1.282
0.975,-0.071,-0.178,-0.427,0.671,-1.038
0.978,-0.063,-0.187,-1.160,3.601,-0.366
0.976,-0.063,-0.195,-1.282,1.221,-0.793

0.545,0.252,1.929,-58.350,-191.895,9.583
0.560,0.201,1.904,-57.129,-169.128,7.324
0.546,0.172,1.839,-49.438,-149.292,5.371
0.532,0.103,1.842,-36.926,-136.230,3.296
0.543,0.019,1.907,-25.208,-126.038,2.075
0.559,0.047,1.924,-10.559,-114.502,5.066
0.568,0.060,1.937,3.784,-100.891,6.287
0.578,0.046,1.954,14.099,-86.975,6.165
0.595,0.063,1.973,17.212,-72.205,7.324
0.638,0.138,2.038,13.977,-56.824,9.216
0.654,0.169,1.999,13.306,-37.415,9.338
0.664,0.228,2.139,9.460,-23.926,7.751
0.681,0.216,2.188,7.874,-6.165,4.944
0.654,0.163,2.063,8.423,17.334,0.854
0.635,0.134,2.011,8.606,35.889,-0.793
0.612,0.076,1.941,10.437,53.345,-1.770
0.592,0.086,1.775,14.038,71.045,-0.305
0.595,0.081,1.729,16.785,82.520,0.854
0.591,0.076,1.673,21.423,93.140,1.099
0.580,0.077,1.551,28.076,105.774,1.648
0.564,0.072,1.410,34.973,116.577,1.831
0.541,0.031,1.264,39.917,124.023,1.831
0.526,0.026,1.125,41.199,129.272,3.906
0.540,0.046,1.048,39.917,131.287,6.653
0.561,0.087,0.988,36.499,133.789,9.094
0.584,0.146,0.932,31.555,137.390,10.376
0.602,0.192,0.920,26.489,139.526,9.399
0.628,0.225,0.972,20.996,141.235,6.836
0.666,0.257,0.988,17.578,144.165,3.235
0.672,0.245,0.972,20.020,148.987,-1.587
0.663,0.181,0.925,24.658,156.006,-6.531
0.628,0.142,0.793,27.161,162.720,-9.399
0.603,0.069,0.690,27.161,168.945,-11.047
0.579,0.040,0.586,24.292,175.049,-10.132
0.560,-0.001,0.424,21.606,179.260,-7.874
0.567,0.015,0.292,16.785,180.847,-4.028
0.592,0.055,0.265,11.047,174.866,-1.343
0.630,0.093,0.297,7.263,168.762,-0.244
0.674,0.144,0.325,5.310,166.626,-0.427
0.700,0.172,0.331,8.240,164.062,-2.258
0.710,0.160,0.260,13.672,165.405,-6.104
0.693,0.108,0.148,18.677,166.321,-10.620
0.683,0.080,0.077,21.057,164.307,-12.634
0.697,0.067,0.032,20.264,161.682,-13.428
0.709,0.066,-0.023,19.409,158.813,-13.733
0.709,0.066,-0.127,19.226,155.945,-14.282
0.718,0.055,-0.212,18.433,151.733,-15.442
0.733,0.045,-0.233,17.395,143.738,-16.479
0.745,0.011,-0.234,15.686,136.841,-17.700
0.754,0.001,-0.252,12.512,130.371,-17.822
0.764,0.017,-0.295,8.850,126.831,-17.029
0.780,0.018,-0.291,6.226,120.911,-17.883
0.792,0.001,-0.282,3.662,114.075,-19.714
0.799,-0.015,-0.322,2.441,109.985,-20.935
0.802,-0.045,-0.341,1.709,104.858,-21.790
0.817,-0.048,-0.342,2.197,96.680,-21.790
0.823,-0.067,-0.349,2.319,91.370,-21.667
0.821,-0.101,-0.385,3.174,85.144,-21.790
0.825,-0.118,-0.409,3.662,78.430,-20.996
0.830,-0.145,-0.401,4.150,71.228,-19.470
0.838,-0.151,-0.403,4.028,63.293,-17.578
0.842,-0.155,-0.389,3.479,57.800,-15.076
0.852,-0.165,-0.350,4.089,51.880,-13.306
0.871,-0.139,-0.320,4.395,47.974,-11.414
0.885,-0.113,-0.289,6.165,46.204,-10.010
0.890,-0.113,-0.291,9.277,43.213,-10.620
0.877,-0.136,-0.333,11.475,45.166,-11.414
0.864,-0.171,-0.396,13.000,40.466,-11.292
0.878,-0.196,-0.386,12.634,36.560,-9.338
0.887,-0.197,-0.319,11.353,31.250,-5.920
0.888,-0.189,-0.285,10.498,28.015,-2.869
0.887,-0.186,-0.300,9.460,29.419,-0.793
0.888,-0.193,-0.317,9.216,30.029,1.160
0.901,-0.155,-0.305,7.751,27.405,3.784
0.916,-0.123,-0.294,6.653,27.588,5.615
0.921,-0.112,-0.309,6.470,26.978,5.432
0.918,-0.113,-0.345,6.104,26.672,5.005
0.920,-0.107,-0.370,5.493,23.315,4.822
0.932,-0.101,-0.360,4.578,21.362,5.005
0.937,-0.099,-0.325,4.639,14.343,4.578
0.937,-0.097,-0.302,5.554,11.108,4.456
0.939,-0.089,-0.296,5.676,12.085,4.150
0.951,-0.075,-0.269,5.554,9.155,3.845
0.961,-0.070,-0.257,5.188,7.996,3.113
0.953,-0.067,-0.270,4.211,8.545,2.258
0.949,-0.085,-0.285,3.662,9.155,1.038
0.946,-0.101,-0.294,2.930,6.714,0.610
0.945,-0.096,-0.297,1.831,7.080,1.099
0.952,-0.090,-0.265,0.671,4.456,1.770
0.958,-0.085,-0.253,0.000,4.944,2.258
0.958,-0.092,-0.247,-0.305,2.075,2.380
0.959,-0.096,-0.235,-0.427,2.563,2.930
0.969,-0.078,-0.204,-0.854,2.075,3.845
0.979,-0.063,-0.189,0.000,1.221,3.784
0.978,-0.063,-0.179,1.282,-0.977,2.991
0.977,-0.061,-0.177,2.075,1.892,2.686
0.978,-0.058,-0.208,2.075,3.967,2.441
0.975,-0.068,-0.211,1.831,0.732,1.709
0.976,-0.046,-0.207,3.113,-0.305,1.770
0.989,-0.068,-0.181,3.357,1.526,1.099
0.996,-0.049,-0.176,2.197,0.305,1.465
1.001,-0.027,-0.176,2.136,-1.221,1.648
0.999,-0.048,-0.143,2.502,-0.427,0.305
0.998,-0.056,-0.132,2.502,-0.916,-0.122
0.996,-0.068,-0.152,1.892,0.671,-0.122
0.988,-0.077,-0.158,1.648,1.099,0.305
0.987,-0.073,-0.138,1.526,0.549,0.977
0.987,-0.076,-0.127,1.465,0.610,1.221
0.993,-0.058,-0.148,0.671,3.784,1.770
0.999,-0.054,-0.168,0.305,2.319,1.953
0.994,-0.051,-0.148,-0.244,2.991,1.892
0.994,-0.036,-0.160,0.305,1.526,1.831
0.989,-0.056,-0.177,1.160,3.967,0.610
0.981,-0.067,-0.189,1.892,1.343,-0.183
0.982,-0.073,-0.187,2.014,2.441,0.122
0.976,-0.079,-0.181,1.770,2.136,0.061
0.976,-0.082,-0.210,2.563,0.916,0.061
0.969,-0.107,-0.192,2.075,2.747,0.061
0.968,-0.092,-0.179,1.404,1.831,1.221

0.843,0.114,1.532,2.563,2.319,2.808
0.839,0.132,1.481,7.446,11.597,0.366
0.853,0.145,1.512,7.874,17.212,-0.732
0.845,0.135,1.470,7.507,27.283,-1.953
0.838,0.145,1.414,7.629,37.415,-2.319
0.834,0.141,1.401,6.775,44.434,-3.174
0.821,0.126,1.341,6.592,53.955,-5.066
0.804,0.100,1.267,8.423,61.096,-6.470
0.775,0.078,1.187,11.597,67.810,-7.446
0.752,0.051,1.094,15.747,72.205,-8.118
0.747,0.039,1.073,18.250,75.012,-7.996
0.764,0.086,1.072,19.470,77.148,-6.348
0.776,0.119,1.068,21.667,80.383,-6.531
0.783,0.136,1.076,24.048,83.984,-7.935
0.780,0.124,1.061,25.513,89.905,-9.827
0.772,0.097,1.017,25.146,95.886,-11.047
0.761,0.095,0.990,22.766,103.394,-11.047
0.761,0.091,0.937,20.203,111.023,-10.437
0.750,0.082,0.868,16.968,117.126,-10.376
0.740,0.051,0.800,15.503,123.840,-10.193
0.715,0.028,0.702,13.855,128.479,-9.583
0.700,0.021,0.606,12.207,131.775,-7.751
0.704,0.036,0.546,12.207,129.456,-6.165
0.725,0.068,0.535,12.634,127.563,-4.883
0.735,0.084,0.524,12.512,125.916,-4.700
0.750,0.120,0.529,11.475,125.732,-5.188
0.757,0.132,0.510,11.169,127.319,-7.080
0.748,0.110,0.430,12.268,130.066,-10.620
0.738,0.081,0.378,12.756,131.287,-13.367
0.745,0.084,0.368,13.000,130.249,-14.282
0.742,0.057,0.300,15.015,130.859,-15.869
0.725,-0.001,0.237,18.311,130.676,-18.188
0.728,-0.027,0.211,18.677,130.554,-18.066
0.736,-0.031,0.160,16.296,130.859,-16.113
0.737,-0.029,0.139,14.282,129.639,-14.404
0.734,-0.020,0.091,14.404,129.578,-13.489
0.752,-0.022,0.061,13.184,128.540,-13.245
0.770,-0.003,0.047,11.353,126.465,-12.573
0.773,-0.007,0.015,10.864,126.831,-12.634
0.757,-0.037,-0.032,10.620,125.916,-13.611
0.743,-0.044,-0.114,9.399,125.732,-13.611
0.768,-0.049,-0.155,5.737,123.779,-13.000
0.797,-0.044,-0.131,3.052,117.859,-12.451
0.793,-0.048,-0.131,3.540,114.685,-12.878
0.779,-0.089,-0.154,5.127,113.892,-14.038
0.771,-0.118,-0.220,6.348,112.305,-14.221
0.763,-0.152,-0.284,6.348,112.732,-12.878
0.751,-0.165,-0.362,5.371,109.924,-10.742
0.745,-0.172,-0.450,5.798,108.337,-8.606
0.742,-0.175,-0.511,5.920,102.356,-6.348
0.748,-0.168,-0.582,7.019,93.201,-4.150
0.751,-0.182,-0.628,7.080,86.182,-2.563
0.764,-0.178,-0.668,6.714,73.669,-1.526
0.785,-0.174,-0.631,5.920,62.622,0.671
0.814,-0.128,-0.538,5.005,48.279,2.991
0.856,-0.085,-0.423,3.784,41.504,3.967
0.893,-0.030,-0.355,2.441,36.377,3.235
0.902,-0.007,-0.379,2.014,37.964,0.671
0.892,-0.040,-0.422,2.930,37.964,-2.808
0.883,-0.057,-0.437,3.174,35.950,-5.432
0.885,-0.095,-0.458,3.601,33.264,-7.324
0.877,-0.127,-0.494,2.808,29.907,-7.874
0.877,-0.139,-0.486,1.404,23.804,-6.409
0.887,-0.163,-0.429,0.732,20.874,-4.761
0.909,-0.151,-0.344,-1.648,18.738,-2.625
0.929,-0.103,-0.306,-2.686,15.015,-0.610
0.942,-0.082,-0.279,-1.221,15.198,-0.061
0.954,-0.069,-0.257,0.549,14.160,-0.671
0.948,-0.062,-0.278,1.282,15.381,-1.648
0.938,-0.077,-0.310,1.770,16.296,-2.380
0.939,-0.084,-0.311,1.526,14.343,-2.869
0.937,-0.103,-0.303,0.427,13.916,-3.296
0.935,-0.109,-0.310,-0.671,11.902,-2.808
0.931,-0.129,-0.313,-2.991,11.658,-2.258
0.934,-0.122,-0.307,-5.127,10.498,-1.221
0.946,-0.136,-0.294,-6.104,9.155,0.244
0.955,-0.121,-0.255,-8.179,7.935,1.892
0.961,-0.106,-0.220,-8.850,6.348,3.601
0.962,-0.095,-0.223,-7.568,7.690,3.601
0.964,-0.104,-0.220,-5.249,6.836,2.686
0.976,-0.070,-0.208,-4.456,6.348,2.686
0.987,-0.029,-0.220,-3.174,6.775,2.136
0.981,-0.053,-0.216,-0.793,5.798,-0.916
0.973,-0.075,-0.204,1.221,4.700,-2.563
0.955,-0.116,-0.247,2.136,3.601,-3.418
0.948,-0.139,-0.265,2.075,5.493,-2.991
0.959,-0.119,-0.243,1.221,3.357,-1.709
0.973,-0.105,-0.206,0.183,0.000,-0.549
0.971,-0.107,-0.200,-0.732,1.221,0.183
0.972,-0.116,-0.193,-1.099,-0.610,0.793
0.967,-0.117,-0.188,-1.160,1.465,1.587
0.962,-0.133,-0.211,-1.343,1.099,2.014
0.959,-0.145,-0.211,-1.953,0.488,3.113
0.957,-0.137,-0.205,-3.418,3.845,5.005
0.962,-0.128,-0.198,-4.700,2.319,6.836
0.976,-0.101,-0.188,-6.592,3.357,8.606
0.990,-0.089,-0.150,-7.080,2.930,9.583
0.996,-0.067,-0.130,-6.470,3.845,9.705
1.000,-0.043,-0.147,-5.493,6.470,9.399
1.001,-0.041,-0.152,-3.113,7.141,7.690
1.008,-0.019,-0.167,-0.671,7.080,5.554
1.001,-0.024,-0.179,0.916,6.958,3.601
1.000,-0.033,-0.162,2.197,6.531,1.709
0.994,-0.039,-0.171,2.991,5.981,0.305
0.984,-0.061,-0.205,4.456,7.996,-1.099
0.974,-0.078,-0.236,5.188,6.531,-1.648
0.972,-0.091,-0.247,4.517,6.653,-1.099
0.978,-0.088,-0.212,4.150,2.991,-0.305
0.980,-0.080,-0.186,3.967,1.343,0.549
0.979,-0.080,-0.179,3.479,3.357,0.916
0.978,-0.083,-0.192,3.540,3.845,1.160
0.978,-0.077,-0.203,2.869,4.333,1.648
0.979,-0.061,-0.209,1.770,3.540,2.014
0.974,-0.060,-0.206,1.099,5.493,1.770
0.980,-0.064,-0.204,0.427,4.822,1.465
0.983,-0.049,-0.213,-0.427,4.700,1.465
0.982,-0.051,-0.212,-0.366,6.287,0.977
0.985,-0.064,-0.197,-0.549,4.456,0.122
0.984,-0.058,-0.206,-0.305,5.676,0.061

0.465,0.310,1.844,27.039,-226.440,1.465
0.457,0.252,1.792,20.020,-201.172,-8.972
0.438,0.154,1.721,8.728,-176.636,-18.555
0.402,0.074,1.697,-2.991,-157.837,-24.963
0.386,-0.032,1.751,-13.306,-142.883,-28.687
0.362,-0.156,1.867,-22.156,-129.333,-30.029
0.357,-0.255,1.928,-27.588,-112.976,-27.222
0.366,-0.313,1.967,-30.823,-94.299,-21.301
0.372,-0.339,1.994,-31.921,-75.256,-14.343
0.389,-0.315,1.956,-28.320,-56.885,-6.958
0.400,-0.297,1.902,-21.667,-41.565,-1.770
0.414,-0.271,1.884,-14.282,-29.053,2.563
0.432,-0.269,1.946,-8.423,-19.104,5.859
0.460,-0.265,2.022,-3.723,-8.301,9.216
0.491,-0.205,1.973,3.723,6.348,12.878
0.487,-0.191,1.911,10.559,21.484,15.015
0.489,-0.116,1.938,13.062,34.607,17.517
0.496,-0.148,1.896,14.221,54.077,17.761
0.506,-0.113,1.785,10.010,75.745,18.555
0.506,-0.089,1.720,4.272,94.910,20.142
0.505,-0.073,1.587,0.427,111.877,20.691
0.501,-0.049,1.461,-2.319,124.207,21.057
0.492,-0.069,1.350,-2.258,132.935,19.958
0.489,-0.078,1.236,-1.709,138.977,19.592
0.501,-0.058,1.135,-0.366,141.479,20.447
0.505,-0.046,1.054,2.380,141.296,20.752
0.525,-0.043,1.018,3.845,140.503,20.447
0.545,-0.016,0.995,4.578,140.442,20.752
0.561,-0.027,0.964,4.395,142.761,20.325
0.577,-0.009,0.963,0.854,144.897,20.386
0.596,0.007,0.947,-2.930,149.170,20.874
0.610,0.041,0.841,-5.249,154.602,20.935
0.620,0.028,0.780,-6.775,157.837,19.226
0.616,0.025,0.719,-7.812,158.752,17.822
0.624,0.050,0.638,-8.789,159.912,17.273
0.647,0.091,0.601,-7.751,158.020,16.296
0.668,0.102,0.540,-3.662,155.884,13.672
0.677,0.132,0.458,-0.732,153.442,10.742
0.689,0.119,0.444,1.221,148.621,6.714
0.701,0.097,0.444,2.930,143.677,3.235
0.723,0.068,0.488,2.319,139.832,1.526
0.732,0.083,0.497,0.183,139.465,1.038
0.740,0.081,0.466,-0.061,142.395,0.061
0.736,0.048,0.417,1.465,144.226,-1.709
0.724,0.016,0.347,1.770,147.949,-2.319
0.717,0.009,0.234,1.160,151.001,-2.197
0.726,0.004,0.170,-0.427,149.536,-1.953
0.735,0.001,0.156,-0.183,144.592,-1.465
0.733,-0.005,0.117,0.793,140.747,-1.343
0.747,0.018,0.040,0.366,138.977,-0.671
0.784,0.039,0.048,-2.075,133.118,-0.183
0.817,0.066,0.107,-3.845,126.953,-0.549
0.823,0.090,0.100,-3.418,124.512,-1.892
0.818,0.077,0.038,-3.479,124.878,-4.578
0.825,0.078,-0.032,-4.089,123.962,-7.629
0.830,0.060,-0.062,-4.150,120.789,-10.498
0.834,0.052,-0.094,-4.700,117.310,-13.184
0.841,0.025,-0.143,-6.958,114.380,-15.503
0.833,-0.002,-0.179,-8.484,110.779,-17.273
0.830,-0.033,-0.203,-9.094,106.934,-18.494
0.834,-0.051,-0.228,-9.216,99.915,-19.226
0.839,-0.064,-0.236,-7.202,93.689,-19.226
0.831,-0.075,-0.234,-5.554,88.379,-19.287
0.833,-0.086,-0.258,-2.686,83.069,-19.348
0.844,-0.093,-0.268,-1.953,78.003,-18.860
0.852,-0.079,-0.279,-1.099,73.486,-18.066
0.850,-0.095,-0.299,-0.610,70.007,-18.005
0.854,-0.103,-0.292,-1.099,67.688,-17.883
0.857,-0.105,-0.319,-1.892,63.049,-17.395
0.855,-0.132,-0.374,-1.892,61.829,-17.273
0.854,-0.155,-0.402,-1.587,56.213,-16.541
0.865,-0.156,-0.393,-1.160,50.598,-14.526
0.872,-0.168,-0.353,-1.221,43.762,-12.634
0.862,-0.182,-0.365,-1.038,41.565,-10.864
0.864,-0.197,-0.390,-0.183,36.011,-8.728
0.873,-0.200,-0.356,1.282,33.447,-5.981
0.883,-0.177,-0.326,2.625,29.358,-3.235
0.897,-0.158,-0.310,3.418,26.367,-1.770
0.902,-0.145,-0.308,3.479,26.855,-0.793
0.909,-0.137,-0.321,3.845,24.231,-0.061
0.919,-0.119,-0.324,3.357,22.888,0.671
0.928,-0.095,-0.332,3.479,19.409,1.038
0.937,-0.085,-0.333,2.930,16.785,0.427
0.951,-0.081,-0.270,1.465,12.756,-0.183
0.962,-0.065,-0.231,0.610,11.169,-0.671
0.963,-0.068,-0.223,0.671,11.169,-1.953
0.954,-0.102,-0.226,0.854,11.414,-2.747
0.944,-0.128,-0.248,0.061,11.963,-2.991
0.944,-0.126,-0.271,-0.854,11.841,-2.197
0.954,-0.114,-0.249,-1.465,8.789,-1.404
0.956,-0.117,-0.210,-1.160,7.324,-1.038
0.961,-0.102,-0.218,-0.366,7.324,-0.732
0.977,-0.089,-0.194,0.000,6.592,-0.916
0.982,-0.072,-0.167,0.366,5.310,-1.709
0.983,-0.063,-0.173,1.282,6.409,-2.075
0.976,-0.090,-0.156,2.136,5.432,-2.930
0.966,-0.098,-0.176,2.502,5.920,-3.357
0.965,-0.124,-0.192,3.174,6.287,-3.357
0.963,-0.125,-0.191,2.747,5.920,-2.686
0.965,-0.130,-0.176,1.282,5.371,-2.136
0.965,-0.133,-0.158,-0.366,6.836,-1.221
0.975,-0.104,-0.175,-1.404,6.897,0.244
0.989,-0.095,-0.187,-1.404,6.714,0.732
0.978,-0.110,-0.145,-1.221,6.165,0.488
0.981,-0.083,-0.147,-0.427,5.493,1.343
0.990,-0.072,-0.152,-0.549,6.104,1.343
0.991,-0.067,-0.155,0.305,5.371,0.488
0.993,-0.073,-0.160,1.160,5.005,-0.366
0.995,-0.074,-0.134,1.099,4.150,-1.160
0.997,-0.071,-0.114,1.099,3.723,-1.526
0.999,-0.063,-0.122,1.465,4.333,-2.075
0.990,-0.093,-0.129,2.014,4.700,-2.441
0.987,-0.123,-0.145,1.282,5.493,-2.563
0.974,-0.126,-0.177,0.000,5.676,-2.075
0.968,-0.134,-0.178,-0.793,6.348,-1.221
0.971,-0.139,-0.170,-1.221,4.761,-0.061
0.976,-0.129,-0.136,-2.136,5.493,1.526
0.984,-0.103,-0.129,-1.831,4.883,2.747
0.981,-0.102,-0.146,-0.610,6.287,2.563

0.223,0.536,2.158,-43.945,-336.670,9.583
0.211,0.418,2.132,-39.063,-298.401,-1.404
0.153,0.272,1.915,-29.663,-262.634,-7.690
0.141,0.173,1.968,-32.410,-239.685,-7.812
0.151,0.104,2.287,-43.945,-221.191,-4.761
0.153,0.073,2.382,-51.392,-189.941,-0.122
0.173,0.105,2.436,-50.354,-158.203,5.981
0.205,0.171,2.527,-37.537,-136.230,11.353
0.221,0.227,2.605,-13.672,-118.469,13.733
0.254,0.297,2.618,15.076,-101.135,13.550
0.307,0.353,2.627,40.222,-83.679,10.315
0.297,0.349,2.579,61.646,-62.134,4.456
0.298,0.354,2.571,71.838,-39.673,-1.099
0.299,0.296,2.583,73.669,-13.672,-7.080
0.298,0.217,2.498,70.374,18.372,-12.756
0.309,0.166,2.464,64.148,49.072,-15.015
0.286,0.102,2.316,61.951,79.712,-16.418
0.248,0.013,2.112,62.927,108.398,-15.808
0.233,-0.067,1.942,64.270,129.639,-12.939
0.219,-0.095,1.762,68.726,147.400,-7.019
0.218,-0.138,1.621,74.219,160.950,-1.587
0.219,-0.144,1.511,77.209,171.814,5.005
0.227,-0.116,1.394,78.613,181.641,12.512
0.254,-0.076,1.303,79.285,188.904,18.555
0.289,-0.030,1.200,78.369,194.763,23.315
0.309,0.007,1.084,77.942,199.707,26.184
0.325,0.007,1.001,75.745,201.660,27.283
0.361,0.044,0.908,69.763,202.454,28.564
0.403,0.106,0.820,61.951,202.576,29.541
0.441,0.131,0.783,54.871,199.585,27.832
0.467,0.117,0.749,48.523,197.693,25.208
0.482,0.109,0.680,41.870,198.914,22.644
0.490,0.121,0.601,36.865,199.646,20.996
0.504,0.120,0.515,34.058,197.632,18.433
0.523,0.101,0.456,29.602,194.519,15.686
0.548,0.090,0.466,25.330,189.087,13.611
0.558,0.073,0.465,25.330,184.753,11.597
0.571,0.039,0.453,26.184,184.143,9.216
0.573,-0.001,0.416,26.367,185.181,8.362
0.583,-0.036,0.396,23.743,186.157,8.667
0.594,-0.026,0.360,20.691,188.110,10.437
0.603,-0.032,0.307,17.822,190.918,11.780
0.613,-0.016,0.252,14.648,193.787,12.817
0.617,-0.033,0.188,11.780,196.228,13.306
0.623,-0.047,0.110,9.521,198.242,13.550
0.644,-0.006,0.037,5.981,197.083,15.259
0.660,0.006,0.012,3.235,192.505,15.442
0.669,0.003,0.017,1.770,188.416,14.526
0.679,0.015,-0.024,-0.854,186.584,13.977
0.692,0.044,-0.126,-1.587,185.974,13.000
0.696,0.038,-0.210,-2.075,183.105,10.376
0.697,0.008,-0.230,-4.456,178.101,7.202
0.716,0.031,-0.280,-7.629,174.133,5.554
0.734,0.029,-0.337,-10.803,171.509,2.686
0.726,-0.005,-0.448,-12.695,167.419,-1.465
0.721,-0.060,-0.573,-11.963,160.095,-3.784
0.732,-0.088,-0.543,-12.817,144.287,-3.845
0.763,-0.061,-0.414,-13.428,128.113,-2.502
0.795,-0.033,-0.359,-12.634,118.591,-2.502
0.805,-0.040,-0.386,-9.521,115.967,-4.578
0.788,-0.058,-0.452,-5.554,113.159,-7.263
0.776,-0.090,-0.542,-2.319,109.253,-9.399
0.766,-0.117,-0.632,-0.732,102.356,-10.559
0.765,-0.115,-0.727,0.244,93.506,-10.193
0.765,-0.132,-0.812,0.122,82.397,-9.644
0.778,-0.158,-0.813,-0.488,66.284,-8.789
0.787,-0.169,-0.792,-1.770,51.880,-6.653
0.792,-0.197,-0.741,-2.075,38.452,-4.944
0.799,-0.165,-0.715,-2.075,27.893,-2.441
0.812,-0.142,-0.678,-2.686,18.433,-0.732
0.825,-0.104,-0.680,-5.371,10.620,0.916
0.842,-0.083,-0.691,-9.827,4.517,1.709
0.853,-0.076,-0.594,-13.855,-4.028,1.587
0.871,-0.078,-0.500,-15.686,-10.315,1.099
0.880,-0.075,-0.476,-15.076,-12.390,-0.061
0.897,-0.069,-0.459,-13.428,-15.442,-1.160
0.915,-0.097,-0.361,-11.414,-19.104,-2.258
0.928,-0.107,-0.252,-10.376,-21.240,-2.625
0.928,-0.109,-0.261,-7.507,-17.090,-2.441
0.915,-0.123,-0.319,-4.089,-14.404,-2.930
0.917,-0.166,-0.292,-1.526,-15.198,-3.601
0.931,-0.185,-0.216,-0.366,-15.625,-2.930
0.936,-0.163,-0.212,0.488,-11.536,-0.854
0.931,-0.150,-0.228,0.671,-7.324,0.305
0.928,-0.158,-0.260,0.610,-3.662,0.305
0.938,-0.161,-0.269,-0.122,-2.258,1.404
0.948,-0.132,-0.240,-3.113,-2.502,2.930
0.954,-0.114,-0.218,-5.615,-1.404,3.967
0.951,-0.123,-0.238,-7.141,0.366,3.601
0.953,-0.148,-0.258,-7.507,0.793,3.540
0.956,-0.129,-0.231,-6.165,-1.221,4.456
0.957,-0.133,-0.218,-2.625,-2.441,4.761
0.958,-0.147,-0.223,0.488,-2.869,4.578
0.960,-0.147,-0.225,2.258,-3.052,5.432
0.967,-0.127,-0.194,1.892,-3.784,6.897
0.977,-0.095,-0.159,1.282,-4.150,8.362
0.979,-0.095,-0.139,1.343,-2.869,8.240
0.977,-0.102,-0.163,1.282,-0.366,7.507
0.977,-0.076,-0.214,-0.244,2.808,8.118
0.990,-0.061,-0.196,-2.563,0.977,8.423
0.994,-0.053,-0.161,-4.456,0.854,8.057
0.990,-0.064,-0.157,-6.042,2.686,7.446
0.991,-0.079,-0.164,-8.240,3.662,7.080
0.988,-0.077,-0.166,-9.094,4.700,7.690
0.985,-0.079,-0.184,-8.606,4.028,8.301
0.985,-0.081,-0.176,-7.751,2.014,8.850
0.992,-0.046,-0.150,-6.226,1.404,9.521
1.001,-0.041,-0.159,-4.028,0.488,8.606
0.997,-0.023,-0.185,-1.831,0.916,7.507
0.990,-0.027,-0.191,1.465,0.671,5.798
0.985,-0.055,-0.194,3.723,0.244,3.906
0.985,-0.065,-0.191,3.906,-0.061,3.357
0.988,-0.075,-0.177,3.174,0.122,3.906
0.980,-0.074,-0.173,1.831,1.526,4.333
0.984,-0.053,-0.192,-0.427,4.150,5.127
0.996,-0.045,-0.182,-2.380,4.822,5.005
0.994,-0.035,-0.166,-2.869,5.005,4.517
0.992,-0.021,-0.193,-3.113,6.165,3.784
0.983,-0.049,-0.212,-2.869,6.409,2.136

0.366,0.106,2.132,-12.878,-234.314,-6.958
0.363,0.146,2.029,-3.174,-203.613,-7.751
0.360,0.096,2.000,-3.601,-181.702,-11.230
0.380,0.073,2.085,-13.672,-163.513,-11.292
0.419,0.077,2.313,-28.259,-145.996,-9.827
0.461,0.052,2.544,-38.696,-124.268,-9.888
0.492,-0.031,2.714,-41.748,-97.656,-11.108
0.505,-0.068,2.715,-35.645,-68.787,-10.132
0.480,-0.073,2.647,-21.423,-43.457,-8.057
0.508,-0.087,2.673,-8.118,-24.048,-6.775
0.524,-0.074,2.570,9.155,-3.906,-5.310
0.530,-0.093,2.555,25.269,13.611,-4.028
0.544,-0.021,2.623,34.363,30.212,-2.197
0.530,-0.047,2.474,40.894,57.861,-2.319
0.512,-0.069,2.303,41.748,87.158,-2.380
0.488,-0.098,2.210,37.415,112.183,-0.671
0.451,-0.165,2.091,32.410,138.489,2.563
0.427,-0.159,1.935,27.100,164.734,9.033
0.406,-0.146,1.759,22.522,188.232,15.503
0.385,-0.143,1.612,19.287,206.726,20.569
0.370,-0.095,1.408,19.775,221.924,25.757
0.362,-0.080,1.145,23.499,232.300,28.748
0.371,-0.047,0.963,28.015,233.704,30.823
0.382,-0.006,0.777,32.837,229.431,31.738
0.399,0.027,0.641,35.278,222.656,31.494
0.432,0.061,0.611,33.997,212.646,31.128
0.483,0.103,0.651,30.029,205.139,30.762
0.541,0.206,0.686,23.743,201.965,30.457
0.589,0.259,0.673,20.142,204.224,26.306
0.598,0.240,0.626,19.958,208.496,18.738
0.582,0.208,0.496,22.339,215.088,11.902
0.567,0.194,0.343,23.987,219.055,6.836
0.559,0.155,0.235,24.048,218.445,3.113
0.550,0.085,0.160,24.841,215.393,0.183
0.551,0.072,0.066,23.621,212.097,-0.183
0.560,0.077,-0.087,24.353,208.862,0.183
0.562,0.016,-0.127,25.513,200.562,-0.916
0.575,0.022,-0.202,25.085,191.956,-0.183
0.595,0.034,-0.252,23.437,182.678,1.038
0.628,0.059,-0.237,20.935,172.241,1.221
0.663,0.101,-0.229,17.761,164.246,0.671
0.675,0.083,-0.262,14.465,161.743,-1.587
0.690,0.075,-0.328,9.521,160.095,-3.174
0.696,0.027,-0.390,2.502,157.288,-4.456
0.680,-0.033,-0.450,-5.432,153.442,-4.822
0.680,-0.066,-0.524,-13.550,148.621,-3.052
0.693,-0.060,-0.602,-20.630,139.893,-0.427
0.724,-0.059,-0.609,-25.757,129.150,1.831
0.746,-0.048,-0.571,-26.978,116.821,2.808
0.750,-0.032,-0.590,-24.841,107.971,3.174
0.754,-0.040,-0.656,-21.912,98.694,2.014
0.768,-0.038,-0.694,-19.409,87.158,0.916
0.771,-0.062,-0.703,-15.442,72.876,-0.732
0.783,-0.070,-0.703,-11.536,59.937,-1.709
0.812,-0.073,-0.612,-8.667,46.265,-1.892
0.832,-0.059,-0.538,-4.578,36.377,-2.075
0.843,-0.055,-0.554,-1.099,31.067,-2.380
0.849,-0.048,-0.555,0.549,25.391,-2.869
0.853,-0.058,-0.537,0.977,18.616,-3.601
0.862,-0.069,-0.516,-0.977,12.939,-4.150
0.877,-0.049,-0.531,-4.333,9.155,-3.113
0.886,-0.058,-0.483,-6.470,3.540,-3.540
0.894,-0.095,-0.411,-8.057,-0.610,-4.395
0.902,-0.081,-0.388,-10.254,-1.343,-3.479
0.912,-0.082,-0.323,-10.803,-2.808,-3.113
0.918,-0.103,-0.289,-9.583,-2.991,-3.662
0.925,-0.109,-0.286,-8.484,-1.953,-3.113
0.934,-0.104,-0.243,-6.226,-2.014,-2.441
0.948,-0.069,-0.200,-4.150,-1.648,-2.258
0.956,-0.061,-0.218,-1.770,0.122,-2.930
0.954,-0.091,-0.252,0.183,1.343,-4.395
0.944,-0.100,-0.251,0.671,0.916,-4.700
0.937,-0.108,-0.261,0.732,1.038,-4.028
0.944,-0.104,-0.260,0.183,0.305,-3.601
0.947,-0.114,-0.232,1.038,-0.610,-3.784
0.946,-0.124,-0.245,1.343,0.671,-3.662
0.950,-0.116,-0.249,1.282,1.038,-2.625
0.951,-0.130,-0.240,0.671,0.366,-2.197
0.949,-0.118,-0.231,-0.122,0.427,-1.099
0.955,-0.105,-0.238,-1.038,0.061,0.244
0.969,-0.089,-0.211,-2.197,-0.977,1.343
0.973,-0.072,-0.193,-2.808,-1.587,1.648
0.973,-0.087,-0.179,-2.991,-1.160,1.221
0.966,-0.094,-0.188,-2.869,-0.549,0.793
0.969,-0.102,-0.157,-3.052,-0.305,1.099
0.981,-0.087,-0.141,-2.502,0.183,1.770
0.982,-0.080,-0.152,-0.427,1.587,1.831
0.974,-0.093,-0.154,1.465,2.930,1.221
0.963,-0.100,-0.198,2.075,3.540,1.221
0.975,-0.090,-0.205,1.160,3.296,2.136
0.983,-0.057,-0.182,0.000,1.343,3.296
0.990,-0.035,-0.170,-0.488,1.526,3.357
0.985,-0.063,-0.160,-0.488,2.258,1.831
0.972,-0.086,-0.178,-0.977,3.723,1.038
0.963,-0.094,-0.210,-1.770,3.906,2.014
0.965,-0.096,-0.209,-2.625,2.930,3.357
0.973,-0.082,-0.166,-3.540,0.793,4.517
0.983,-0.061,-0.156,-4.211,1.038,5.310
0.984,-0.052,-0.163,-4.578,2.441,5.188
0.990,-0.055,-0.147,-4.761,2.441,4.822
0.995,-0.042,-0.163,-5.554,3.845,5.005
0.994,-0.014,-0.201,-5.554,3.967,4.944
0.993,-0.044,-0.179,-5.493,3.113,3.479
0.986,-0.046,-0.167,-5.859,2.625,3.052
0.988,-0.049,-0.177,-6.226,3.601,3.174
0.990,-0.057,-0.157,-6.348,3.418,3.052
0.990,-0.042,-0.164,-6.592,4.028,3.540
0.992,-0.045,-0.161,-6.226,4.700,3.235
0.994,-0.036,-0.151,-5.798,4.333,3.052
0.994,-0.027,-0.175,-4.944,5.127,2.686
0.996,-0.027,-0.173,-3.662,4.517,1.770
0.996,-0.031,-0.166,-2.380,3.601,0.977
0.992,-0.036,-0.168,-1.404,3.601,0.183
0.989,-0.041,-0.179,-0.305,4.395,-0.244
0.984,-0.050,-0.180,0.366,3.601,-0.610
0.986,-0.055,-0.175,0.305,3.357,-0.610
0.983,-0.057,-0.162,-0.122,3.662,-0.916
0.979,-0.058,-0.189,-0.549,5.005,-0.732
0.973,-0.071,-0.202,-1.282,5.554,-0.610

0.382,0.025,2.629,-12.817,-273.682,35.400
0.476,0.087,2.769,-13.611,-232.056,35.095
0.534,0.183,2.717,-11.353,-187.256,32.166
0.536,0.237,2.491,-6.531,-146.179,26.184
0.514,0.155,2.348,-5.981,-117.859,16.541
0.517,0.133,2.409,-10.315,-99.060,10.620
0.578,0.115,2.554,-19.409,-78.979,7.080
0.574,0.149,2.576,-19.043,-52.429,3.235
0.562,0.114,2.456,-11.719,-24.841,-2.136
0.532,0.045,2.304,2.747,-2.258,-8.606
0.500,-0.064,2.211,17.029,15.076,-13.611
0.487,-0.152,2.160,26.489,32.227,-14.893
0.480,-0.156,2.093,34.058,52.246,-12.573
0.488,-0.138,2.053,40.405,72.815,-9.827
0.493,-0.092,1.987,44.006,95.337,-7.263
0.490,-0.055,1.831,47.729,119.995,-5.920
0.460,-0.117,1.726,49.255,141.785,-6.775
0.429,-0.165,1.625,48.828,162.048,-4.944
0.416,-0.186,1.483,44.495,183.228,0.000
0.417,-0.190,1.316,41.077,202.759,6.409
0.405,-0.185,1.143,37.476,218.689,13.489
0.418,-0.168,1.056,30.090,229.614,21.484
0.437,-0.092,0.955,22.400,238.159,28.503
0.474,-0.003,0.748,20.325,245.850,32.837
0.479,0.047,0.568,21.118,246.704,32.776
0.490,0.068,0.407,20.142,242.798,30.273
0.501,0.074,0.272,16.541,235.107,27.405
0.520,0.062,0.187,13.062,225.159,24.109
0.557,0.092,0.141,10.986,214.417,22.156
0.596,0.079,0.119,8.484,205.383,19.836
0.613,0.066,0.074,7.507,199.158,17.395
0.647,0.044,0.050,5.188,194.214,15.747
0.666,0.061,0.060,0.061,189.575,14.893
0.692,0.081,0.077,-4.211,185.364,13.855
0.718,0.084,0.074,-6.042,183.167,12.146
0.745,0.077,0.049,-6.165,180.481,9.521
0.748,0.097,-0.011,-1.953,178.162,6.714
0.740,0.100,-0.099,3.357,174.988,2.930
0.746,0.092,-0.193,7.690,169.678,-1.160
0.760,0.074,-0.273,8.423,160.950,-4.028
0.775,0.068,-0.316,9.583,150.696,-6.592
0.769,0.028,-0.327,11.414,140.381,-9.216
0.772,-0.010,-0.353,10.620,131.958,-10.620
0.785,-0.013,-0.364,7.324,124.573,-9.766
0.812,0.010,-0.346,3.845,116.638,-8.728
0.827,0.006,-0.312,0.793,109.863,-8.850
0.837,0.015,-0.314,-2.625,107.239,-8.972
0.827,0.010,-0.370,-4.456,106.201,-10.132
0.828,-0.006,-0.444,-4.028,102.661,-12.024
0.839,-0.025,-0.462,-4.395,95.215,-13.245
0.840,-0.024,-0.481,-3.357,86.670,-13.916
0.836,-0.051,-0.509,-1.465,78.857,-14.893
0.828,-0.080,-0.537,0.244,70.923,-15.686
0.824,-0.113,-0.559,1.465,62.744,-15.259
0.824,-0.151,-0.550,2.014,53.345,-13.916
0.837,-0.161,-0.502,1.892,44.617,-11.292
0.846,-0.140,-0.478,1.465,38.147,-7.751
0.860,-0.128,-0.450,1.099,33.508,-5.249
0.884,-0.104,-0.393,0.244,28.503,-3.479
0.906,-0.078,-0.370,0.610,26.306,-2.563
0.916,-0.050,-0.362,1.160,24.658,-2.808
0.923,-0.038,-0.358,1.282,23.499,-3.723
0.921,-0.056,-0.356,1.465,21.851,-5.676
0.916,-0.092,-0.360,1.709,20.569,-7.080
0.911,-0.103,-0.351,0.671,19.775,-7.507
0.911,-0.103,-0.378,-0.549,20.447,-7.141
0.905,-0.129,-0.393,-1.343,19.470,-7.080
0.896,-0.161,-0.379,-2.319,16.907,-5.859
0.901,-0.178,-0.373,-3.662,15.137,-3.357
0.910,-0.165,-0.347,-5.249,13.550,-0.793
0.917,-0.148,-0.315,-5.859,12.085,1.953
0.923,-0.129,-0.342,-6.226,11.963,3.662
0.931,-0.116,-0.354,-6.287,10.376,4.700
0.947,-0.085,-0.311,-5.310,6.531,5.554
0.962,-0.064,-0.263,-2.991,2.991,4.883
0.967,-0.056,-0.250,-0.183,2.441,3.052
0.967,-0.052,-0.232,1.953,2.258,0.610
0.968,-0.059,-0.239,2.625,3.174,-1.343
0.973,-0.058,-0.284,2.502,4.089,-2.258
0.967,-0.087,-0.254,2.075,2.563,-3.296
0.958,-0.103,-0.243,2.136,2.075,-3.662
0.949,-0.128,-0.248,1.160,3.296,-3.174
0.947,-0.122,-0.247,-0.366,4.211,-2.380
0.960,-0.110,-0.256,-2.747,5.005,-1.526
0.969,-0.108,-0.267,-3.662,5.127,-0.854
0.970,-0.102,-0.216,-3.601,3.418,-0.488
0.963,-0.109,-0.202,-2.625,3.113,-0.183
0.955,-0.129,-0.224,-1.587,4.639,-0.122
0.948,-0.145,-0.247,-0.916,5.310,0.732
0.938,-0.148,-0.268,-1.648,5.310,2.502
0.938,-0.134,-0.287,-2.686,4.883,4.456
0.943,-0.145,-0.255,-4.395,3.296,5.920
0.952,-0.116,-0.235,-6.104,3.113,7.874
0.962,-0.091,-0.247,-6.836,4.700,9.338
0.975,-0.078,-0.208,-6.714,4.761,8.972
0.989,-0.043,-0.185,-6.714,4.944,8.911
0.995,-0.024,-0.231,-5.371,6.653,7.690
0.995,-0.022,-0.251,-4.150,6.409,5.432
0.991,-0.024,-0.241,-2.808,4.700,3.357
0.982,-0.053,-0.244,-1.282,4.089,1.221
0.979,-0.062,-0.230,-0.122,2.747,0.122
0.978,-0.072,-0.222,0.549,1.465,-0.488
0.973,-0.082,-0.234,1.526,1.282,-0.610
0.972,-0.089,-0.229,1.526,0.916,-0.122
0.981,-0.080,-0.208,0.854,0.549,0.549
0.984,-0.069,-0.193,0.061,0.732,1.099
0.986,-0.067,-0.187,0.183,1.038,0.916
0.986,-0.066,-0.191,-0.244,1.648,0.732
0.986,-0.066,-0.213,-0.122,2.014,0.366
0.985,-0.064,-0.210,0.183,1.770,0.122
0.986,-0.068,-0.195,1.221,1.404,-0.427
0.979,-0.081,-0.198,2.319,1.953,-1.160
0.972,-0.090,-0.218,2.441,2.869,-1.160
0.970,-0.103,-0.218,1.526,2.930,-1.099
0.972,-0.097,-0.221,0.549,2.991,-0.305
0.969,-0.090,-0.225,0.061,3.845,0.427
0.972,-0.087,-0.227,-0.244,3.723,0.793
0.979,-0.089,-0.202,-0.732,2.930,1.221
0.981,-0.071,-0.196,-0.671,3.418,1.404

0.522,0.100,2.443,-29.053,-201.721,9.583
0.551,0.158,2.408,-24.475,-164.673,7.812
0.562,0.214,2.353,-17.090,-136.536,3.357
0.561,0.137,2.391,-4.822,-119.873,-4.639
0.553,-0.016,2.517,6.714,-106.995,-13.306
0.548,-0.121,2.604,19.409,-89.355,-15.930
0.529,-0.180,2.602,32.593,-67.444,-14.587
0.530,-0.239,2.610,41.077,-44.373,-12.512
0.536,-0.231,2.557,42.786,-17.944,-7.324
0.550,-0.170,2.515,40.649,8.728,-2.502
0.561,-0.135,2.451,37.170,37.231,-1.099
0.555,-0.147,2.340,33.142,67.322,-1.648
0.543,-0.218,2.209,27.832,96.375,-1.770
0.514,-0.241,2.053,24.780,125.366,0.977
0.489,-0.239,1.824,23.560,152.649,5.432
0.468,-0.249,1.651,26.001,171.997,9.155
0.450,-0.257,1.478,29.907,188.049,13.306
0.432,-0.233,1.295,33.875,201.721,18.433
0.443,-0.210,1.174,35.645,210.571,23.315
0.448,-0.157,1.021,37.598,216.858,27.710
0.443,-0.127,0.836,41.809,221.619,30.640
0.471,-0.077,0.724,43.457,220.642,33.020
0.486,-0.011,0.614,42.908,218.201,34.851
0.513,0.004,0.498,40.344,216.797,33.752
0.532,0.038,0.377,36.133,214.661,33.264
0.559,0.043,0.307,29.236,210.815,32.227
0.593,0.061,0.258,20.325,208.923,31.006
0.624,0.130,0.158,12.390,207.764,29.785
0.643,0.121,0.085,8.118,202.698,25.452
0.652,0.112,0.025,5.554,198.792,20.447
0.663,0.099,-0.037,6.348,190.430,16.541
0.667,0.074,-0.106,8.484,182.861,12.573
0.672,0.039,-0.173,11.169,173.584,9.949
0.686,0.020,-0.211,12.329,163.940,8.301
0.707,0.026,-0.277,13.977,155.090,8.057
0.727,0.004,-0.271,13.184,145.447,6.958
0.748,0.027,-0.286,11.414,137.207,6.714
0.764,0.043,-0.329,8.362,129.700,5.981
0.793,0.040,-0.311,4.944,121.826,4.211
0.827,0.036,-0.246,-0.122,113.708,2.563
0.838,0.031,-0.243,-4.395,109.924,1.526
0.828,-0.008,-0.249,-8.911,109.741,0.305
0.815,-0.059,-0.234,-14.099,106.628,0.366
0.820,-0.068,-0.255,-20.569,108.704,2.258
0.842,-0.058,-0.286,-25.452,107.483,4.395
0.844,-0.063,-0.307,-27.649,105.713,4.883
0.840,-0.067,-0.342,-27.771,102.539,4.639
0.838,-0.064,-0.411,-25.940,97.717,3.601
0.843,-0.058,-0.469,-21.057,89.355,1.892
0.848,-0.078,-0.478,-15.686,80.017,-0.671
0.853,-0.088,-0.478,-9.766,70.374,-2.136
0.851,-0.104,-0.481,-4.639,59.570,-2.930
0.858,-0.139,-0.470,-0.549,52.490,-3.784
0.859,-0.167,-0.428,-0.244,44.067,-3.540
0.858,-0.148,-0.435,-0.366,41.382,-1.831
0.863,-0.150,-0.429,-0.671,36.499,-0.671
0.881,-0.138,-0.422,-3.357,34.058,0.732
0.898,-0.111,-0.386,-5.249,29.480,2.319
0.902,-0.110,-0.358,-6.653,27.222,2.502
0.908,-0.101,-0.342,-7.080,24.414,2.563
0.912,-0.095,-0.349,-7.385,22.583,2.380
0.915,-0.097,-0.376,-7.874,20.691,1.831
0.921,-0.102,-0.358,-8.118,16.113,1.343
0.926,-0.110,-0.314,-6.653,12.085,1.038
0.927,-0.127,-0.278,-5.005,9.705,0.671
0.928,-0.118,-0.301,-4.883,9.888,1.099
0.938,-0.103,-0.302,-3.418,7.568,1.465
0.952,-0.095,-0.280,-1.343,5.554,1.160
0.958,-0.119,-0.234,-0.366,4.028,0.244
0.954,-0.093,-0.241,-0.427,5.005,0.671
0.956,-0.092,-0.265,-0.183,5.981,0.549
0.961,-0.115,-0.233,-0.366,4.517,-0.305
0.959,-0.109,-0.217,-0.793,4.150,0.488
0.955,-0.112,-0.212,-2.014,5.554,1.770
0.954,-0.116,-0.211,-2.808,5.066,2.441
0.957,-0.103,-0.227,-3.967,6.958,3.418
0.965,-0.091,-0.240,-5.798,6.470,4.272
0.969,-0.075,-0.222,-6.836,5.981,4.395
0.974,-0.066,-0.211,-5.981,5.005,3.662
0.982,-0.084,-0.204,-3.601,4.028,2.075
0.974,-0.099,-0.209,-1.648,3.906,0.793
0.963,-0.102,-0.214,0.610,4.272,0.793
0.966,-0.106,-0.186,2.075,1.282,1.160
0.969,-0.099,-0.194,3.357,2.808,1.709
0.966,-0.098,-0.210,4.272,2.075,1.892
0.959,-0.098,-0.222,4.089,4.089,2.136
0.957,-0.104,-0.241,3.784,1.831,2.380
0.963,-0.090,-0.230,3.174,0.793,3.296
0.974,-0.077,-0.206,2.747,-1.282,3.845
0.982,-0.078,-0.186,1.892,-0.916,3.845
0.987,-0.064,-0.165,0.916,-0.732,4.272
0.987,-0.053,-0.167,0.061,0.854,4.211
0.991,-0.048,-0.183,-0.427,1.404,3.662
0.983,-0.056,-0.201,-0.427,2.441,2.991
0.974,-0.067,-0.209,-1.343,2.869,2.625
0.969,-0.074,-0.210,-2.014,2.014,2.869
0.971,-0.077,-0.214,-2.930,2.075,3.357
0.971,-0.077,-0.207,-3.479,2.502,4.211
0.975,-0.060,-0.214,-3.784,2.502,4.639
0.984,-0.056,-0.195,-3.906,0.488,4.700
0.992,-0.047,-0.167,-3.052,-1.038,4.456
0.998,-0.030,-0.162,-1.465,-0.977,4.150
0.997,-0.023,-0.178,0.244,-0.916,2.991
0.993,-0.038,-0.187,1.953,-0.061,1.221
0.990,-0.050,-0.169,1.953,-1.343,0.244
0.988,-0.054,-0.172,1.465,-0.732,0.244
0.987,-0.065,-0.167,0.549,-0.183,-0.122
0.979,-0.063,-0.193,-1.160,1.648,0.061
0.969,-0.081,-0.212,-1.953,2.014,0.305
0.976,-0.083,-0.198,-3.235,1.587,1.160
0.987,-0.055,-0.176,-3.540,-0.183,2.319
0.990,-0.052,-0.168,-2.930,0.000,2.136
0.992,-0.032,-0.179,-1.282,0.977,1.404
0.991,-0.041,-0.190,0.549,0.610,-0.183
0.993,-0.053,-0.174,1.343,-1.099,-1.221
0.988,-0.056,-0.150,1.587,-1.648,-1.892
0.986,-0.056,-0.168,1.648,-0.305,-2.075
0.985,-0.069,-0.167,1.404,-0.610,-2.258
0.979,-0.078,-0.180,0.671,0.427,-2.258

0.586,0.134,-1.763,10.620,-37.476,-14.282
0.581,0.159,-1.707,0.671,-69.458,-20.874
0.534,0.139,-1.666,-11.047,-96.436,-25.269
0.468,0.018,-1.578,-25.391,-122.070,-31.555
0.415,-0.048,-1.448,-38.818,-141.907,-32.959
0.367,-0.128,-1.312,-50.476,-161.865,-31.433
0.324,-0.130,-1.243,-56.702,-179.687,-28.015
0.276,-0.135,-1.201,-60.303,-196.655,-24.048
0.230,-0.133,-1.140,-64.270,-217.651,-20.691
0.183,-0.140,-0.978,-68.359,-237.183,-16.724
0.157,-0.132,-0.782,-68.115,-256.958,-12.695
0.133,-0.124,-0.619,-59.998,-274.414,-9.644
0.067,-0.121,-0.549,-47.302,-289.673,-7.629
0.013,-0.092,-0.385,-34.302,-309.082,-4.395
-0.068,-0.138,-0.242,-22.888,-327.209,-4.089
-0.124,-0.203,-0.043,-15.198,-340.027,-2.380
-0.111,-0.263,0.452,-13.855,-353.638,2.136
-0.036,-0.222,0.874,-13.672,-353.149,10.742
0.026,-0.175,1.087,-15.808,-335.571,18.555
0.066,-0.087,1.203,-17.090,-312.927,24.536
0.141,0.034,1.422,-14.893,-296.753,28.015
0.230,0.108,1.681,-5.615,-285.889,26.489
0.277,0.158,1.817,12.756,-272.522,21.179
0.293,0.216,1.859,33.630,-256.775,13.611
0.315,0.186,2.022,38.574,-242.004,3.967
0.361,0.171,2.383,20.325,-222.351,-2.380
0.456,0.217,2.746,-16.541,-187.500,-4.578
0.543,0.206,3.039,-59.998,-142.517,-6.775
0.580,0.157,3.211,-91.858,-94.238,-10.620
0.576,0.064,3.175,-100.220,-47.058,-14.160
0.534,-0.060,3.034,-83.252,-13.000,-19.104
0.500,-0.223,2.953,-51.880,5.249,-21.484
0.500,-0.316,2.904,-17.456,17.517,-18.860
0.502,-0.292,2.785,13.489,32.410,-10.620
0.522,-0.268,2.682,36.377,52.185,-3.113
0.528,-0.204,2.442,49.438,79.468,2.991
0.526,-0.162,2.194,49.316,107.300,8.057
0.511,-0.084,1.900,40.222,133.667,12.573
0.483,-0.081,1.661,26.428,155.579,14.099
0.466,-0.058,1.449,12.268,172.058,15.747
0.473,-0.022,1.290,0.427,181.824,17.334
0.504,-0.000,1.274,-7.141,182.861,17.090
0.529,0.041,1.267,-6.226,183.228,15.625
0.538,-0.005,1.232,2.319,186.951,12.024
